aX,aY,aZ,gX,gY,gZ
-0.234619,-0.449097,-0.891846,-22.338865,-30.151365,-49.682613
-0.231567,-0.455566,-0.766113,-33.569336,-22.827147,-34.667969
-0.199829,-0.399292,-0.798584,-61.462399,1.831055,-25.024412
-0.191772,-0.332031,-1.053101,-72.753906,5.920410,-26.611326
-0.216431,-0.374023,-1.142212,-93.994133,-13.122558,-38.452148
-0.217651,-0.435791,-1.069336,-73.364258,-43.151852,-45.043941
-0.215210,-0.455811,-0.823853,-56.091305,-49.316402,-37.902832
-0.223877,-0.400879,-0.665771,-56.213375,-42.297359,-37.414551
-0.229370,-0.421265,-0.741089,-61.035152,-18.737793,-44.616695
-0.231079,-0.457153,-0.874512,-61.706539,-1.098633,-56.091305
-0.233398,-0.534912,-1.145630,-49.438473,-14.282226,-58.593746
-0.247192,-0.551147,-1.124756,-33.752441,-30.334471,-57.250973
-0.266113,-0.583374,-0.872192,-1.281738,-55.603024,-56.152340
-0.272705,-0.600464,-0.761963,-7.263183,-50.231930,-52.368160
-0.272583,-0.607422,-0.789429,-34.301758,-26.000975,-44.982906
-0.268188,-0.629761,-1.023682,-39.550781,-21.118162,-42.724606
-0.279907,-0.687988,-1.131592,-37.353516,-30.639647,-39.794922
-0.290894,-0.744629,-1.114258,-36.987305,-49.194332,-35.217285
-0.295166,-0.791626,-0.967407,-36.254883,-58.837887,-20.446775
-0.283203,-0.737793,-0.829468,-37.231445,-58.105465,-14.770507
-0.265259,-0.746826,-0.828247,-49.865719,-47.485348,-8.178711
-0.243042,-0.722290,-0.939209,-57.128902,-39.550781,0.976562
-0.237061,-0.691040,-0.991211,-47.485348,-45.410152,6.713867
-0.235352,-0.723267,-1.025024,-23.559568,-60.974117,4.516602
-0.216919,-0.786621,-0.930664,-13.549804,-68.847656,7.568359
-0.182983,-0.675415,-0.744507,-18.432617,-75.073242,20.446775
-0.163574,-0.647705,-0.680908,-34.606934,-64.270020,23.498533
-0.115723,-0.651123,-0.668091,-44.860836,-48.950191,26.672361
-0.079956,-0.607422,-0.730225,-48.339840,-44.433590,28.381346
-0.048340,-0.617554,-0.786621,-45.043941,-41.625973,27.648924
-0.036011,-0.619141,-0.798096,-31.860350,-46.752926,28.381346
-0.017944,-0.626099,-0.735840,-20.141600,-53.466793,27.648924
-0.000977,-0.685913,-0.627563,-16.418457,-53.527828,27.954100
0.023193,-0.648193,-0.622192,-17.883301,-44.921871,35.156250
0.034668,-0.616333,-0.672363,-23.559568,-37.048340,37.170410
0.061035,-0.613770,-0.725220,-22.155760,-41.748043,36.071777
0.086792,-0.582520,-0.651001,-21.789549,-44.311520,36.682129
0.105591,-0.560913,-0.611816,-27.160643,-40.771481,34.545898
0.107666,-0.600708,-0.632080,-27.221678,-33.020020,28.808592
0.112183,-0.685181,-0.659180,-24.291990,-31.677244,32.775879
0.137085,-0.638672,-0.641479,-21.972654,-30.761717,37.292480
0.160645,-0.545044,-0.681763,-15.502929,-27.770994,39.123535
0.162231,-0.563477,-0.685791,3.967285,-33.996582,27.160643
0.161865,-0.720825,-0.599609,12.512206,-36.437988,25.085447
0.175293,-0.725464,-0.512451,10.131835,-26.794432,40.954586
0.185913,-0.648682,-0.557983,-7.812500,-8.056641,54.504391
0.213501,-0.556519,-0.719604,-2.258301,-6.347656,49.316402
0.233521,-0.583008,-0.798218,6.225585,-11.413573,44.799801
0.234985,-0.653809,-0.706543,19.653320,-27.770994,37.414551
0.235596,-0.687012,-0.616821,22.155760,-31.982420,39.611816
0.248047,-0.678589,-0.525146,16.784668,-25.146482,45.837399
0.262939,-0.558838,-0.619019,0.549316,-7.995605,56.945797
0.286011,-0.551025,-0.664795,4.455566,-5.187988,54.565426
0.302856,-0.551147,-0.687622,15.624999,-5.737304,55.725094
0.315308,-0.534790,-0.745728,23.986814,-8.544922,56.152340
0.300049,-0.597900,-0.608276,41.931149,-21.301268,52.185055
0.312500,-0.585571,-0.546997,35.095215,-16.235352,58.288570
0.328613,-0.489136,-0.586914,19.165039,-5.126953,67.810059
0.348267,-0.345947,-0.594971,18.371582,-5.371093,63.354488
0.358154,-0.425659,-0.503296,23.010252,-4.577637,51.940914
0.360596,-0.439453,-0.529053,23.437498,9.826660,59.448238
0.360229,-0.371094,-0.630005,28.991697,14.465331,59.265133
0.361816,-0.361450,-0.704468,29.479979,14.892577,54.748531
0.369873,-0.397217,-0.736816,29.602049,11.413573,51.208492
0.370850,-0.379395,-0.669312,31.005857,3.662109,57.189938
0.374268,-0.315918,-0.517700,33.508301,6.591796,58.227535
0.385498,-0.277954,-0.544434,37.353516,23.376463,55.358883
0.387939,-0.267822,-0.600464,31.921385,36.437988,49.560543
0.384644,-0.303345,-0.755005,28.320311,37.597656,47.668453
0.381104,-0.249390,-0.825562,28.076170,33.874512,49.377438
0.368286,-0.283447,-0.735107,32.897949,24.902342,45.104977
0.367065,-0.314453,-0.678467,33.447266,27.038572,44.799801
0.364990,-0.266968,-0.645752,31.677244,31.860350,47.668453
0.371216,-0.172729,-0.659668,28.015135,40.893551,50.537106
0.373291,-0.125977,-0.746460,25.146482,50.964352,45.715328
0.366455,-0.174438,-0.973267,30.639647,38.330078,35.522461
0.357300,-0.241577,-0.818970,31.616209,27.526854,35.461426
0.325562,-0.226807,-0.662720,21.972654,29.785154,36.071777
0.307129,-0.280762,-0.672241,9.216309,51.269527,33.447266
0.307129,-0.271606,-0.805664,4.882812,60.607906,39.978027
0.332764,-0.070068,-1.026367,12.939452,65.979004,50.964352
0.335571,-0.073853,-1.033447,42.053219,43.151852,37.597656
0.315918,-0.156250,-0.793091,52.185055,32.653809,33.630371
0.276367,-0.134399,-0.686890,46.936031,39.611816,33.874512
0.250488,-0.108887,-0.744873,28.869627,58.105465,31.372068
0.245972,-0.087891,-0.864502,16.113281,74.279785,30.822752
0.234497,-0.075928,-1.071045,19.409180,65.002441,29.296873
0.207886,-0.094727,-1.018433,20.935057,57.739254,29.296873
0.191040,-0.083130,-0.983032,18.432617,53.771969,31.066893
0.189697,-0.045410,-1.008545,19.836426,52.490231,33.569336
0.191650,0.055298,-0.961670,22.949217,48.950191,32.165527
0.167114,0.081421,-0.950439,26.794432,50.659176,22.155760
0.148071,0.025757,-1.008423,27.526854,55.847164,12.084960
0.123291,-0.049072,-1.059814,21.789549,50.598141,18.859863
0.116089,0.015747,-1.053101,14.892577,50.170895,21.057127
0.112183,0.045044,-1.058228,8.789063,48.461910,19.958496
0.109253,0.103149,-1.040283,12.207030,46.569820,19.226074
0.091553,0.151367,-1.038208,16.723633,45.715328,13.916015
0.073853,0.113525,-1.016724,20.080564,44.738766,3.356933
0.064575,0.119629,-1.083374,10.253905,51.147457,-0.427246
0.046753,0.103394,-1.202271,4.943848,41.625973,-7.080078
0.046509,0.000732,-1.075439,5.004883,34.667969,-7.812500
0.052856,0.098511,-0.951050,-1.525879,33.142090,-0.793457
0.041382,0.146484,-0.933105,-11.169433,42.907711,-9.033203
0.000244,0.030762,-0.980469,-15.747069,53.222652,-19.836426
-0.010010,0.002197,-1.123779,-19.042969,56.457516,-16.967773
-0.012207,0.078979,-1.188721,-35.156250,48.461910,-13.916015
-0.008667,0.076050,-1.119385,-6.958007,29.785154,-23.376463
-0.038818,0.158081,-0.929565,4.638672,26.733397,-26.733397
-0.095703,0.037964,-0.934937,13.671874,41.076656,-44.555660
-0.108887,-0.050415,-1.041504,6.652832,57.312008,-46.264645
-0.109009,-0.051636,-1.255249,-13.793944,50.292965,-34.484863
-0.087280,0.019653,-1.299072,-18.981934,40.771481,-31.249998
-0.085205,0.057739,-1.133667,-11.962890,19.958496,-30.883787
-0.097900,0.054443,-0.994873,3.173828,15.075683,-35.400391
-0.140015,0.078003,-0.874512,6.958007,23.132322,-39.550781
-0.160278,0.029663,-1.041016,6.408691,45.532223,-52.246090
-0.150879,-0.006714,-1.176025,3.906250,54.077145,-53.710934
-0.148804,-0.061523,-1.369385,2.014160,34.729004,-47.546383
-0.162109,-0.074341,-1.213135,2.746582,18.676758,-43.395992
-0.186523,-0.025879,-0.960693,2.319336,5.737304,-40.039062
-0.193481,-0.052124,-0.913818,-4.272461,19.042969,-44.128414
-0.170410,-0.057129,-0.940796,-8.300781,36.193848,-34.179687
-0.152710,0.132568,-1.131836,-9.826660,41.137691,-29.968260
-0.183960,0.130615,-1.227905,-4.577637,29.174803,-46.997066
-0.203369,0.011230,-1.170410,7.385253,4.028320,-71.044922
-0.219849,-0.179810,-0.975708,7.690429,-0.854492,-69.580078
-0.205322,-0.109375,-0.932251,-0.183105,9.765625,-47.485348
0.181152,-0.499878,-0.537231,-0.610352,-9.582520,64.147949
0.191040,-0.440063,-0.688477,13.854980,-12.084960,52.429195
0.197144,-0.502197,-0.713501,20.202635,-16.784668,45.837399
0.202637,-0.568970,-0.635742,33.081055,-23.376463,42.053219
0.208496,-0.572998,-0.583008,36.743164,-20.263670,51.940914
0.217529,-0.547363,-0.523926,34.729004,-15.075683,57.861324
0.233765,-0.472656,-0.554687,30.212400,-1.647949,66.528320
0.243652,-0.437134,-0.782593,26.428221,12.023925,66.101074
0.244263,-0.478149,-0.833740,40.832516,-2.746582,63.110348
0.271484,-0.418701,-0.721924,45.898434,-13.122558,67.871094
0.285645,-0.269775,-0.612061,55.053707,-19.714355,73.181152
0.284058,-0.259521,-0.511719,56.213375,-16.967773,65.185547
0.288452,-0.286987,-0.378052,40.527340,12.512206,61.096188
0.313232,-0.307861,-0.704834,31.433104,28.625486,62.622066
0.339966,-0.203613,-0.944458,22.583006,28.686522,67.687988
0.345947,-0.162720,-0.911987,33.813477,4.882812,59.753414
0.348022,-0.202759,-0.715088,43.273922,-2.258301,52.612301
0.343506,-0.314697,-0.562256,55.725094,-0.610352,45.410152
0.338135,-0.234253,-0.503418,41.076656,18.859863,57.006832
0.337524,-0.164917,-0.599976,24.719236,46.874996,60.119625
0.339966,-0.115112,-0.913208,28.137205,51.574703,56.762691
0.337158,-0.083862,-0.972778,42.907711,35.827637,51.330563
0.327271,-0.078491,-0.908813,51.025387,19.165039,43.762203
0.296631,-0.165527,-0.748047,51.696774,17.395020,39.123535
0.293335,-0.149902,-0.661133,41.931149,26.550291,38.085937
0.292114,-0.128052,-0.670654,23.986814,45.166012,38.452148
0.279419,-0.147827,-0.815308,12.634276,59.936520,47.668453
0.258911,-0.051025,-1.005493,12.878417,57.983395,52.429195
0.260498,0.004272,-0.917969,25.512693,39.184570,48.461910
0.257568,-0.009644,-0.829102,36.376953,32.836914,40.710445
0.237427,-0.016113,-0.722656,36.682129,36.804199,39.367676
0.216553,0.002319,-0.769897,26.367186,53.283688,37.658691
0.209717,0.000977,-0.887817,13.427733,69.335937,34.729004
0.210693,-0.012573,-1.080933,11.413573,61.279293,33.264160
0.201416,-0.011108,-1.034790,13.793944,52.551266,33.386230
0.178101,0.022949,-0.900513,18.310547,44.128414,32.409668
0.170776,0.025391,-0.907837,19.287109,52.673336,27.648924
0.156860,0.010742,-1.026001,17.211914,55.847164,26.123045
0.136719,-0.017456,-1.088257,11.901855,53.222652,23.864744
0.126343,-0.012817,-1.101318,9.643555,46.813961,26.916502
0.110718,0.053101,-1.085938,22.033689,36.376953,28.564451
0.117676,0.104004,-0.936401,28.320311,32.714844,27.221678
0.119751,0.132568,-0.876221,24.719236,40.527340,22.338865
0.102905,0.138306,-0.919678,13.854980,54.870602,13.793944
0.077515,0.074829,-1.030273,9.094238,58.654781,10.437011
0.068726,0.039795,-1.125854,0.610352,59.387203,8.422852
0.064941,0.059570,-1.171387,-1.281738,51.513668,10.864257
0.055298,0.104248,-1.217773,3.173828,43.945309,10.986327
0.034302,0.133789,-1.007690,18.005371,25.939939,8.300781
0.028809,0.154907,-0.917969,14.709472,34.667969,6.042480
0.017822,0.203979,-1.014160,7.019042,45.410152,3.845215
-0.008423,0.174561,-1.141968,-5.432128,50.964352,-6.286621
-0.024902,0.146851,-1.153076,-13.671874,44.250484,-12.512206
-0.033691,0.140015,-1.173706,-20.874022,36.987305,-13.305663
-0.057739,0.170288,-1.074585,-23.498533,29.296873,-16.601562
-0.062500,0.114624,-0.898804,9.277344,27.038572,-26.672361
-0.070679,0.132324,-0.911499,22.644041,45.288082,-26.550291
-0.081909,0.146484,-1.026001,19.653320,51.818844,-31.066893
-0.093750,0.137451,-1.099854,12.512206,51.452633,-33.874512
-0.105713,0.095581,-1.208984,-2.258301,48.522945,-37.414551
-0.107788,0.108765,-1.216797,-13.427733,34.362793,-33.691406
-0.118896,0.129395,-1.067993,-8.972168,24.841307,-35.705566
-0.143433,0.118042,-0.917358,0.183105,26.733397,-37.536621
-0.171021,0.124512,-0.891846,19.836426,37.719727,-44.006344
-0.178589,0.135864,-0.942871,16.723633,56.396481,-48.828121
-0.178955,0.161621,-1.216064,2.807617,63.232418,-54.138180
-0.179810,0.067383,-1.412231,-1.220703,52.185055,-58.105465
-0.190552,-0.037231,-1.183838,-1.037598,14.099120,-58.898922
-0.198364,-0.032715,-0.999023,5.920410,0.488281,-46.752926
-0.216431,0.045532,-0.815552,6.347656,9.460449,-41.748043
-0.219849,0.138672,-0.974243,-3.479004,35.949707,-39.001465
-0.220459,0.152588,-1.084839,-9.155273,42.114254,-49.194332
-0.213257,0.016602,-1.221924,-7.934570,30.700682,-57.312008
-0.218872,-0.019531,-1.145264,-6.652832,13.427733,-48.767086
-0.232666,-0.002808,-1.024536,-6.286621,-1.708984,-41.198727
-0.240601,0.037598,-0.749634,-7.873535,0.854492,-39.123535
-0.245850,0.103638,-0.865479,-16.357422,30.822752,-36.926270
-0.240112,0.059448,-1.201294,-27.770994,46.874996,-46.264645
-0.234619,0.012573,-1.311768,-33.264160,24.902342,-52.307125
-0.235107,-0.055420,-1.287354,-31.433104,6.408691,-51.025387
-0.246338,-0.073730,-0.967041,-26.855467,-24.047850,-41.870113
-0.259155,-0.015259,-0.697998,-37.963867,-20.019531,-33.569336
-0.257813,-0.001953,-0.739868,-50.903316,15.441894,-34.912109
-0.253296,0.021240,-1.070923,-60.302731,27.893064,-36.682129
-0.262939,-0.036255,-1.365356,-67.932129,23.437498,-44.616695
-0.265991,-0.133667,-1.238770,-53.771969,-16.784668,-50.231930
-0.260986,-0.149658,-1.023438,-53.283688,-44.189449,-48.461910
-0.253662,-0.158569,-0.761108,-55.175777,-38.391113,-47.363277
-0.248535,-0.160767,-0.844116,-60.485836,-12.207030,-44.921871
-0.254395,-0.142212,-1.005493,-78.491211,3.356933,-43.273922
-0.257202,-0.114502,-1.099243,-108.276360,5.310058,-43.579098
-0.284424,-0.163574,-1.273682,-95.886223,-14.770507,-54.382320
-0.301636,-0.211182,-1.109497,-92.590324,-31.860350,-58.471676
-0.300415,-0.331543,-0.850342,-89.660637,-46.936031,-68.237305
-0.286865,-0.412476,-0.874634,-66.345215,-28.442381,-58.654781
-0.284424,-0.365845,-0.966064,-61.035152,-12.756347,-47.729488
-0.277100,-0.335449,-1.117065,-64.697266,-14.587401,-50.292965
-0.286499,-0.479370,-1.177979,-59.631344,-28.808592,-52.429195
-0.298340,-0.484009,-1.111572,-53.344723,-45.043941,-35.827637
-0.295776,-0.446167,-1.014282,-52.490231,-55.114742,-26.672361
-0.279541,-0.455933,-0.852539,-52.062984,-52.429195,-27.282713
-0.273193,-0.486084,-0.906738,-53.161617,-38.146973,-24.047850
-0.269531,-0.447632,-0.979492,-61.401363,-33.874512,-16.601562
-0.266357,-0.450195,-1.013550,-63.476559,-35.705566,-16.113281
-0.256348,-0.489746,-1.090332,-61.645504,-38.940430,-15.624999
-0.234619,-0.530151,-1.057861,-46.691891,-52.307125,-11.840819
-0.201294,-0.528198,-0.869385,-32.348633,-65.063477,-5.004883
-0.189331,-0.527100,-0.796143,-28.442381,-61.157223,-0.366211
-0.162964,-0.551514,-0.769653,-31.616209,-54.809566,2.075195
-0.143188,-0.478271,-0.885864,-41.931149,-42.907711,11.230468
-0.135986,-0.436157,-0.928833,-39.733887,-45.288082,11.718749
-0.115356,-0.477905,-0.932983,-32.836914,-52.612301,6.164550
-0.094360,-0.565430,-0.880981,-31.860350,-55.358883,7.873535
-0.079224,-0.558594,-0.725830,-26.123045,-59.997555,17.517090
-0.065674,-0.534424,-0.648926,-27.832029,-49.438473,25.756834
-0.031616,-0.474731,-0.699341,-36.682129,-28.747557,30.456541
-0.018677,-0.422974,-0.869995,-37.597656,-25.390623,29.602049
-0.017578,-0.483521,-0.934814,-33.447266,-31.677244,22.094725
-0.015259,-0.526489,-0.941528,-27.832029,-41.992184,20.996092
-0.004761,-0.572510,-0.943237,-23.681639,-47.180172,23.254393
0.001465,-0.576660,-0.815430,-15.319823,-60.058590,28.503416
0.026123,-0.567749,-0.597534,-18.798828,-59.204098,34.912109
0.050293,-0.521606,-0.589478,-28.015135,-33.142090,45.043941
0.090576,-0.429565,-0.797974,-29.846189,-22.644041,44.860836
0.108398,-0.527710,-0.895508,-28.198240,-25.695799,33.264160
0.119629,-0.660278,-0.915405,-19.836426,-37.353516,30.273436
0.124268,-0.656738,-0.887329,-9.948730,-53.039547,40.527340
0.128174,-0.612061,-0.669678,-5.981445,-59.020992,43.945309
0.110962,0.026855,-1.282471,9.094238,43.701168,15.502929
0.103271,0.133057,-1.053101,20.019531,23.315428,18.432617
0.076782,0.152710,-0.823120,22.521971,37.231445,5.798339
0.058960,0.023926,-0.907837,17.761230,49.560543,2.197266
0.052368,0.016235,-1.093872,2.441406,61.218258,7.446289
0.045654,0.065308,-1.126221,-5.432128,51.208492,12.939452
0.024536,0.131470,-1.069092,0.244141,40.405270,6.896972
-0.008301,0.137939,-0.970581,3.417969,38.513184,3.540039
-0.035767,0.132446,-0.981445,2.868652,45.898434,-1.220703
-0.046387,0.111694,-1.046143,-18.310547,52.978512,-6.164550
-0.057739,0.064331,-1.096924,-23.254393,51.147457,-10.986327
-0.068115,0.099487,-1.165649,2.685547,50.292965,-7.873535
-0.078857,0.213745,-1.199219,14.099120,42.053219,-3.234863
-0.098633,0.264282,-1.155151,29.052732,30.029295,-20.385740
-0.119019,0.138794,-1.041626,27.038572,28.381346,-25.329588
-0.125000,0.076782,-1.066040,12.634276,34.057617,-24.719236
-0.117554,0.068481,-1.092285,4.333496,33.630371,-19.653320
-0.111450,0.117188,-1.080200,-1.037598,31.921385,-16.601562
-0.116577,0.214722,-1.108398,-9.033203,32.836914,-14.099120
-0.124512,0.241577,-1.124634,-2.380371,28.747557,-20.874022
-0.135376,0.307739,-1.069458,3.723144,23.254393,-28.991697
-0.148193,0.306885,-1.057617,6.713867,25.329588,-37.597656
-0.154053,0.078735,-1.093994,21.118162,29.052732,-55.114742
-0.149536,0.020020,-1.083862,19.531250,28.503416,-40.710445
-0.151978,0.168579,-1.063354,7.812500,29.418943,-26.000975
-0.156128,0.314575,-1.064087,5.615234,29.846189,-29.296873
-0.149292,0.286865,-1.134155,2.990722,29.052732,-49.499508
-0.150513,0.200562,-1.133789,7.629394,15.747069,-69.152832
-0.162720,0.076904,-0.990845,3.784179,12.145995,-64.880371
-0.193481,0.134399,-0.971558,-0.244141,18.615723,-60.180660
-0.202148,0.067749,-1.117188,-7.385253,31.616209,-59.753414
-0.195312,0.016724,-1.192505,-17.089844,29.907225,-51.391598
-0.176636,0.084595,-1.223877,-20.751951,22.827147,-43.762203
-0.177368,0.135864,-1.132690,-19.836426,7.141113,-42.358395
-0.192871,0.106201,-0.996704,-19.042969,-1.098633,-48.400875
-0.199341,0.101807,-0.951904,-26.367186,4.821777,-54.077145
-0.197876,0.041992,-1.060303,-30.029295,15.441894,-58.776852
-0.187134,-0.007568,-1.266479,-32.775879,12.329101,-57.189938
-0.171143,-0.025391,-1.206177,-35.156250,-12.268065,-47.241207
-0.171509,-0.003052,-1.040405,-43.823238,-34.790039,-31.372068
-0.170166,0.123047,-0.720093,-51.635738,-33.203125,-27.465818
-0.176392,0.079956,-0.775513,-62.805172,-5.737304,-40.710445
-0.171509,-0.096436,-0.952759,-65.917969,11.352538,-57.006832
-0.170776,-0.108032,-1.025146,-70.983887,7.690429,-53.039547
-0.176758,-0.051514,-1.092163,-70.678711,0.976562,-50.537106
-0.197632,-0.080688,-1.010742,-65.063477,-14.770507,-54.626461
-0.203979,-0.159912,-0.920898,-59.326168,-18.066406,-57.678219
-0.205444,-0.145142,-0.924927,-73.364258,-11.108397,-56.640621
-0.221802,-0.155151,-0.962646,-82.153313,-10.009766,-60.852047
-0.218872,-0.205444,-1.016724,-104.248039,-8.239746,-67.749023
-0.235107,-0.368530,-1.273560,-94.848625,-2.136230,-75.378418
-0.245239,-0.427612,-1.327271,-77.636719,-26.550291,-65.307617
-0.239014,-0.399902,-1.115845,-63.598629,-51.757809,-47.912594
-0.225220,-0.353394,-0.817871,-60.485836,-50.720211,-42.541500
-0.225830,-0.267822,-0.884155,-69.885254,-22.216795,-38.269043
-0.231812,-0.286133,-1.036133,-70.495605,-3.662109,-49.926754
-0.248657,-0.524048,-1.278442,-47.851559,-18.249512,-50.537106
-0.243286,-0.645996,-1.289917,-33.691406,-31.616209,-38.269043
-0.217651,-0.462158,-1.055054,-19.531250,-57.556149,-10.192870
-0.206787,-0.372925,-0.924072,-35.766602,-58.776852,-9.887695
-0.201294,-0.427368,-0.833496,-50.292965,-40.283199,-17.883301
-0.191040,-0.483521,-0.950684,-58.959957,-31.982420,-14.526366
-0.173340,-0.491455,-1.169800,-67.016602,-26.000975,-7.202148
-0.167725,-0.599243,-1.203979,-51.147457,-43.640133,-5.187988
-0.168213,-0.644897,-1.080200,-33.508301,-71.350098,5.981445
-0.146973,-0.608887,-0.760986,-37.414551,-68.237305,20.812986
-0.102417,-0.553345,-0.674927,-44.616695,-56.518551,25.512693
-0.072266,-0.516357,-0.748413,-60.363766,-33.996582,32.409668
-0.059692,-0.487183,-0.815674,-74.035645,-21.728514,35.766602
-0.052002,-0.484985,-0.980225,-63.537594,-26.489256,28.930662
-0.044922,-0.624512,-0.921875,-52.978512,-35.400391,27.770994
-0.026245,-0.609009,-0.781982,-31.799314,-45.104977,40.588375
0.002686,-0.542114,-0.703003,-19.348145,-43.518063,49.438473
0.012939,-0.505005,-0.682373,-30.273436,-36.865234,48.400875
0.019287,-0.452148,-0.691406,-35.461426,-33.203125,45.898434
0.046997,-0.481812,-0.770630,-36.376953,-27.282713,42.358395
0.060181,-0.503662,-0.822388,-30.822752,-26.367186,46.997066
0.084229,-0.538818,-0.875000,-14.831542,-33.203125,53.405758
0.109009,-0.507690,-0.804565,-10.131835,-37.658691,56.335445
0.137817,-0.484619,-0.681519,-10.620116,-39.428711,57.800289
0.159790,-0.514160,-0.687256,-20.141600,-30.456541,51.269527
0.167969,-0.511719,-0.725830,-33.081055,-26.062010,46.997066
0.168823,-0.500854,-0.781128,-30.395506,-26.306150,45.043941
0.178711,-0.592407,-0.811646,-21.118162,-25.146482,46.447750
0.183594,-0.579224,-0.805420,-2.502441,-24.230955,63.110348
0.192871,-0.502930,-0.765137,13.000487,-31.494139,78.247070
0.214233,-0.375854,-0.666626,18.188477,-34.912109,76.416016
0.241943,-0.385132,-0.596191,15.624999,-35.400391,60.729977
0.290527,-0.385986,-0.627075,0.183105,-26.550291,51.940914
0.310059,-0.402100,-0.673218,2.319336,-15.258788,51.940914
0.327148,-0.434937,-0.740967,8.605957,-13.549804,54.870602
0.335815,-0.390869,-0.685913,22.949217,-19.287109,64.025879
0.340698,-0.375244,-0.567261,43.273922,-23.254393,65.429687
0.340454,-0.390869,-0.520142,48.461910,-16.113281,59.143063
0.345581,-0.362427,-0.540039,44.677731,-7.873535,58.349606
0.355835,-0.285889,-0.745972,40.161129,10.070800,57.189938
0.354370,-0.301880,-0.822876,41.625973,4.638672,49.682613
0.354004,-0.386475,-0.779785,42.175289,-7.690429,55.053707
0.376831,-0.303711,-0.730835,40.954586,-8.544922,59.753414
0.379150,-0.224365,-0.676880,42.297359,-11.169433,56.762691
0.362183,-0.296265,-0.557373,50.354000,-14.404296,48.339840
0.371704,-0.307373,-0.526367,48.706051,0.488281,56.396481
0.402832,-0.189087,-0.662476,42.175289,25.207518,63.720699
0.416138,-0.088501,-0.847656,39.794922,26.916502,60.485836
0.415527,-0.130737,-0.756592,37.597656,11.596679,48.583981
0.398193,-0.144653,-0.674194,43.273922,6.591796,45.593258
0.353882,-0.193237,-0.581543,48.339840,17.883301,47.668453
0.379150,-0.160645,-0.650024,45.654293,28.015135,53.222652
0.414307,-0.006714,-0.870117,36.071777,44.189449,59.020992
0.418701,0.023560,-0.933350,31.433104,37.719727,46.936031
0.398438,-0.048584,-0.953491,31.555174,31.555174,39.245605
0.355347,-0.176636,-0.836182,33.447266,20.568846,35.278320
0.343750,-0.192261,-0.741211,29.846189,23.071287,48.645016
0.353882,-0.043335,-0.713379,24.719236,41.320797,57.800289
0.349609,0.100586,-0.921509,24.291990,47.119137,53.955074
0.323853,0.084106,-1.049683,25.390623,41.015621,41.076656
0.314331,0.072388,-1.014648,29.724119,23.559568,34.790039
0.311646,0.001343,-0.829712,36.560059,20.141600,34.606934
0.312866,0.008667,-0.708618,35.644531,26.794432,38.330078
0.313232,0.160522,-0.853027,30.761717,48.278805,44.311520
0.309814,0.227905,-0.990723,30.334471,55.358883,35.095215
0.279175,0.166504,-1.102905,33.630371,47.607418,24.719236
0.253052,0.035034,-0.969971,34.057617,30.395506,16.113281
0.241943,0.052246,-0.873413,28.198240,30.578611,31.433104
0.228760,0.190796,-0.806519,19.592285,48.889156,37.902832
0.219604,0.258301,-0.964722,14.282226,55.541988,32.714844
0.198853,0.223999,-1.006348,9.277344,52.612301,22.277830
0.194702,0.240845,-1.009888,8.117676,49.438473,22.033689
-0.184082,0.107422,-0.943115,-62.499996,26.611326,-58.654781
-0.197266,0.097534,-1.126343,-68.115234,19.104004,-70.312500
-0.210815,-0.109009,-1.144531,-64.208984,8.544922,-73.852539
-0.212891,-0.096313,-0.969849,-55.114742,-10.559081,-61.340328
-0.216187,-0.019287,-0.874390,-72.692871,-8.789063,-54.687496
-0.211060,0.006226,-0.844971,-72.387695,16.113281,-66.650391
-0.231323,-0.078735,-1.109497,-65.734863,22.216795,-68.664551
-0.271851,-0.073242,-1.173584,-69.519043,8.789063,-66.406250
-0.288940,-0.105713,-1.189575,-60.607906,-4.211426,-66.772461
-0.290649,-0.206299,-1.144287,-39.001465,-17.150879,-57.922359
-0.258057,-0.149292,-1.003906,-36.743164,-20.202635,-51.391598
-0.252563,-0.115234,-1.034912,-35.888672,-14.526366,-48.706051
-0.261353,-0.120483,-1.064697,-45.898434,-12.084960,-51.269527
-0.279785,-0.127563,-1.151123,-58.654781,-12.451171,-51.391598
-0.282349,-0.204956,-1.263184,-60.913082,-16.235352,-51.696774
-0.274414,-0.267578,-1.204590,-56.884762,-31.616209,-48.461910
-0.262573,-0.248047,-1.057007,-35.339355,-46.630856,-40.222164
-0.253052,-0.232300,-1.035400,-27.404783,-48.217770,-38.330078
-0.240845,-0.252930,-1.099854,-33.874512,-47.973629,-39.672852
-0.232910,-0.252563,-1.144897,-41.015621,-50.537106,-38.940430
-0.225708,-0.253052,-1.149658,-59.143063,-56.091305,-39.123535
-0.225342,-0.331055,-1.104858,-67.077637,-58.593746,-38.818359
-0.199219,-0.447876,-1.005859,-59.753414,-54.138180,-23.315428
-0.162842,-0.409790,-0.974487,-57.312008,-50.415035,-15.258788
-0.130981,-0.339600,-1.038086,-58.410641,-43.579098,-6.774902
-0.118286,-0.393311,-1.152466,-52.978512,-47.058102,-11.108397
-0.116577,-0.486816,-1.098999,-39.611816,-66.162109,-10.498046
-0.109253,-0.477295,-0.980347,-34.484863,-79.040527,1.342773
-0.078613,-0.404907,-0.793823,-36.865234,-75.073242,6.286621
-0.024902,-0.386841,-0.815796,-43.395992,-56.579586,11.596679
-0.002930,-0.383667,-0.864258,-49.621578,-48.400875,14.282226
0.016602,-0.393677,-0.889038,-42.663570,-54.687496,16.418457
0.041626,-0.366821,-0.830200,-36.621094,-57.556149,19.165039
0.059692,-0.365601,-0.840088,-31.616209,-56.701656,20.507811
0.065918,-0.408325,-0.869385,-29.235838,-56.457516,17.089844
0.078369,-0.458374,-0.825073,-23.376463,-60.302731,23.132322
0.101074,-0.405762,-0.736084,-25.024412,-60.180660,25.878904
0.117920,-0.399780,-0.734863,-33.020020,-52.185055,27.343748
0.119873,-0.426025,-0.756714,-32.348633,-43.273922,29.602049
0.126221,-0.436890,-0.788208,-24.169920,-42.785641,34.484863
0.136230,-0.419922,-0.721191,-19.531250,-44.616695,36.010742
0.159302,-0.378540,-0.715576,-15.808105,-38.940430,35.461426
0.171631,-0.351196,-0.792969,-7.080078,-31.372068,29.113768
0.182861,-0.386108,-0.846069,-0.610352,-35.034180,24.414061
0.193970,-0.453125,-0.719727,4.333496,-43.579098,24.230955
0.209106,-0.430176,-0.669189,-1.953125,-36.621094,34.912109
0.216919,-0.432861,-0.695312,-5.004883,-25.024412,42.358395
0.236816,-0.438354,-0.759521,-5.676269,-22.766111,46.020504
0.275146,-0.383301,-0.761230,-6.774902,-24.230955,52.673336
0.288452,-0.371582,-0.758545,-2.990722,-25.878904,51.818844
0.296143,-0.396729,-0.734741,4.638672,-28.137205,48.889156
0.294434,-0.426758,-0.725098,9.460449,-28.930662,48.645016
0.302734,-0.432739,-0.703369,17.333984,-26.123045,57.861324
0.309326,-0.375244,-0.703735,26.489256,-20.874022,74.584961
0.336792,-0.221680,-0.646118,29.174803,-20.080564,76.721191
0.355225,-0.229980,-0.635498,28.564451,-13.061522,67.626953
0.355835,-0.259766,-0.643433,24.475096,-5.676269,62.499996
0.356689,-0.317993,-0.715088,31.249998,-0.732422,68.359375
0.357056,-0.288940,-0.787964,34.667969,-1.708984,74.523926
0.374634,-0.186523,-0.749878,39.855957,-7.446289,84.228508
0.388672,-0.137817,-0.710083,36.926270,-8.361816,85.327141
0.410156,-0.041382,-0.626709,27.526854,1.098633,80.566399
0.402466,-0.008423,-0.619019,23.620604,8.972168,75.561523
0.407837,-0.074707,-0.807251,20.263670,24.841307,64.208984
0.408081,-0.110596,-0.903320,22.766111,21.911619,60.607906
0.407349,-0.091919,-0.894165,23.132322,14.831542,62.316891
0.396729,-0.037842,-0.864502,28.015135,8.483887,63.354488
0.390869,-0.048950,-0.810791,35.583496,4.516602,60.180660
0.394165,0.005249,-0.644531,34.545898,7.263183,61.828609
0.413696,0.035034,-0.738159,28.381346,27.404783,58.715816
0.425659,0.000732,-0.881714,27.038572,38.085937,53.039547
0.422607,-0.013672,-0.994385,27.587889,21.606443,54.687496
0.411865,-0.014160,-0.926270,28.381346,15.441894,55.297848
0.398438,-0.017822,-0.808716,25.634764,10.070800,56.396481
0.406372,0.006714,-0.719238,21.240232,13.732909,61.584469
0.402466,0.113525,-0.663330,19.409180,21.484373,61.401363
0.370483,0.088013,-0.759399,13.671874,37.963867,49.621578
0.355469,0.043701,-0.889893,11.779784,50.292965,43.395992
0.350586,-0.016602,-1.161865,23.193357,31.921385,50.781246
0.339600,0.053345,-0.953247,28.564451,14.038085,56.762691
0.325806,0.157349,-0.565430,32.287598,4.699707,62.499996
0.321045,0.207153,-0.491577,22.949217,35.888672,58.349606
0.314331,0.234253,-0.666382,16.052246,55.358883,51.818844
0.294556,0.209351,-1.048462,4.943848,74.584961,39.794922
0.275757,0.198853,-1.105591,3.417969,56.579586,31.372068
0.232910,0.113647,-1.037231,9.582520,43.457027,31.555174
0.225342,0.120850,-0.951904,11.230468,41.564938,38.085937
0.229004,0.203491,-0.906738,13.122558,41.809078,47.668453
0.229126,0.312622,-0.844604,14.038085,50.659176,39.062500
0.201294,0.331787,-0.952393,11.474608,56.945797,32.592773
0.155029,0.238403,-1.099487,4.211426,61.584469,18.920898
0.144897,0.159912,-1.134399,-5.249023,56.579586,15.441894
0.132690,0.106445,-1.185303,-6.835937,52.490231,21.789549
0.122070,0.240723,-1.103760,-4.699707,36.865234,35.461426
0.114014,0.318237,-1.005981,3.662109,28.442381,32.653809
0.094482,0.355835,-0.940552,10.009766,32.226562,26.062010
0.090454,0.257568,-1.047241,18.493652,40.954586,13.061522
0.090332,0.204224,-1.034302,15.258788,35.217285,11.718749
0.090454,0.219849,-0.913086,6.591796,34.057617,15.930175
0.073120,0.319092,-0.932861,-16.479492,42.053219,19.226074
0.060303,0.284058,-0.958496,-11.535644,46.813961,6.469726
0.031494,0.256958,-0.989258,1.831055,46.569820,5.859375
0.007202,0.270508,-0.992676,8.605957,46.630856,2.685547
0.008179,0.226318,-1.043213,16.235352,48.339840,0.305176
0.008789,0.256348,-1.076904,8.666992,46.997066,4.882812
-0.008301,0.318359,-1.060669,1.525879,42.968746,1.586914
-0.029663,0.311035,-0.942017,-8.239746,36.560059,-6.530761
-0.047241,0.328979,-0.926636,-11.840819,43.945309,-11.535644
-0.064941,0.291138,-0.939575,-15.563964,54.809566,-20.202635
-0.056641,0.283081,-1.013550,-20.935057,61.096188,-21.240232
-0.063232,0.275146,-1.119507,-29.235838,64.453125,-24.658201
-0.073486,0.259766,-1.103882,-30.395506,52.490231,-26.794432
-0.106445,0.280518,-1.001343,-22.216795,49.560543,-27.404783
-0.132812,0.313721,-0.992798,-15.747069,55.175777,-30.151365
-0.149170,0.290405,-1.135986,0.000000,65.856934,-38.330078
-0.154297,0.271973,-1.160278,7.934570,55.725094,-41.870113
-0.153809,0.278320,-1.116699,4.760742,48.950191,-42.175289
-0.159546,0.243774,-1.077515,-7.995605,41.992184,-47.668453
-0.168213,0.136719,-1.031982,-15.991210,37.597656,-51.025387
-0.170532,0.120239,-0.987427,-25.634764,36.010742,-40.466305
-0.181885,0.272949,-0.994385,-31.677244,40.100098,-33.752441
-0.214966,0.343994,-1.260010,-38.024902,51.086422,-40.771481
-0.226562,0.231934,-1.382568,-23.315428,37.109375,-62.622066
-0.229248,0.005493,-1.344849,-7.324218,1.342773,-56.396481
-0.206177,0.057739,-1.007324,-4.272461,-10.437011,-45.593258
-0.191528,0.220459,-0.844971,-6.835937,-7.690429,-35.278320
-0.192139,0.229614,-0.854614,-15.502929,7.873535,-46.874996
-0.203979,0.150635,-0.894653,-20.935057,13.122558,-52.429195
0.200684,-0.509644,-0.520142,-20.263670,-32.531738,29.907225
0.214600,-0.533569,-0.652466,-26.123045,-17.761230,36.926270
0.239502,-0.542480,-0.772217,-25.756834,-19.165039,51.635738
0.269287,-0.458374,-0.740601,-22.338865,-24.108885,56.701656
0.280029,-0.427979,-0.606567,-8.789063,-33.203125,54.382320
0.275146,-0.455322,-0.520142,9.643555,-29.907225,45.898434
0.286621,-0.536011,-0.458252,14.038085,-20.202635,44.677731
0.320801,-0.501953,-0.649048,3.234863,3.540039,54.687496
0.332153,-0.439209,-0.755981,0.915527,4.943848,66.772461
0.346680,-0.358765,-0.825806,19.104004,-16.479492,63.293453
0.350586,-0.319336,-0.650146,26.184080,-26.306150,59.143063
0.347046,-0.297729,-0.473999,36.560059,-27.526854,46.691891
0.344971,-0.340332,-0.434570,31.982420,-8.239746,38.696289
0.349731,-0.365601,-0.503662,20.080564,5.371093,43.029781
0.367676,-0.309814,-0.763428,-1.281738,26.733397,52.795406
0.377197,-0.304688,-0.888672,-1.403808,21.972654,53.344723
0.376587,-0.277222,-0.868286,18.066406,-5.187988,52.368160
0.374390,-0.247803,-0.605469,28.015135,-11.779784,50.292965
0.371338,-0.277100,-0.548706,35.339355,0.854492,47.668453
0.377686,-0.271851,-0.568604,22.399900,21.118162,52.856441
0.383179,-0.207764,-0.653442,13.122558,30.517576,54.443356
0.396606,-0.173828,-0.864502,7.080078,43.701168,50.537106
0.394165,-0.169678,-0.952393,23.010252,34.057617,44.006344
0.367554,-0.192383,-0.865723,43.884274,11.596679,37.292480
0.359985,-0.256104,-0.638306,48.339840,12.023925,38.024902
0.366333,-0.169434,-0.731689,40.405270,33.996582,51.147457
0.367065,-0.091797,-0.791626,27.587889,41.564938,52.124020
0.352417,-0.081543,-0.795532,23.498533,41.320797,44.494625
0.328369,-0.158081,-0.898315,16.601562,47.485348,35.949707
0.315674,-0.105591,-1.013550,22.094725,44.677731,42.907711
0.318481,-0.083252,-0.945435,34.606934,28.503416,42.419430
0.320801,-0.057739,-0.803711,38.635254,28.686522,40.405270
0.307617,-0.098022,-0.876587,40.954586,39.550781,34.973145
0.305542,-0.103394,-0.916870,33.508301,44.006344,36.193848
0.300049,0.018433,-1.017578,33.386230,39.672852,38.635254
0.281250,0.097046,-0.985596,37.109375,33.630371,33.935547
0.257813,-0.021606,-0.906128,39.306641,29.113768,22.338865
0.254150,-0.070679,-0.890381,32.897949,34.484863,26.611326
0.261841,0.008667,-0.874512,27.221678,38.574219,31.738279
0.270508,0.071899,-0.979492,19.714355,47.729488,29.235838
0.264038,0.056519,-1.058472,18.920898,48.095699,22.094725
0.232422,0.017700,-1.133301,22.155760,34.912109,23.010252
0.218872,0.041016,-1.006226,22.277830,29.724119,25.634764
0.206543,0.102661,-1.023804,20.935057,32.897949,29.907225
0.196167,0.112671,-1.023071,18.859863,30.700682,26.855467
0.191650,0.108398,-0.966797,18.493652,30.334471,25.207518
0.202515,0.134155,-0.980591,16.967773,33.569336,23.254393
0.206055,0.150269,-0.958374,15.014647,31.372068,19.104004
0.184937,0.160034,-0.891602,13.549804,37.048340,12.939452
0.158936,0.092773,-0.953247,12.023925,41.442867,9.582520
0.129272,0.049194,-1.057373,15.686034,46.386715,8.728027
0.114868,0.060791,-1.040771,15.930175,40.161129,13.427733
0.112061,0.126099,-1.028198,9.521484,40.222164,15.502929
0.113037,0.182373,-1.057129,-11.718749,39.184570,12.939452
0.106323,0.149414,-1.069336,7.385253,36.132812,1.159668
0.077759,0.065430,-1.038696,17.761230,33.813477,-0.976562
0.066162,0.028442,-0.994507,20.019531,37.292480,1.586914
0.061157,0.056274,-1.016357,5.432128,45.532223,7.751464
0.056274,0.094482,-1.069214,0.427246,42.175289,10.803222
0.052612,0.193115,-1.024780,-0.122070,38.085937,12.634276
0.034790,0.259399,-1.036133,0.427246,36.926270,2.929687
0.024902,0.173462,-1.071777,5.004883,38.696289,-16.967773
0.021362,0.013550,-1.086060,6.225585,37.658691,-17.517090
0.011353,0.080688,-1.012207,2.319336,34.606934,-7.324218
-0.005005,0.099487,-0.989502,3.479004,39.978027,-5.798339
-0.041992,0.077515,-1.114868,-4.699707,49.743649,-6.958007
-0.035767,0.072510,-1.241089,-10.620116,47.424313,-5.004883
-0.015991,0.160156,-1.194214,-9.277344,31.311033,4.272461
-0.013428,0.247681,-1.087891,5.493164,14.282226,2.380371
-0.028198,0.346313,-0.877686,11.352538,13.183593,-9.460449
-0.066040,0.157349,-0.852661,16.235352,26.977537,-35.888672
-0.076660,0.113525,-0.899780,9.765625,44.433590,-31.188963
-0.080200,0.226074,-1.054077,-2.136230,50.659176,-30.029295
-0.092529,0.134277,-1.156982,-1.770019,47.851559,-34.301758
-0.101929,0.072998,-1.136230,11.413573,38.513184,-22.949217
-0.104858,0.131592,-1.113770,26.123045,33.508301,-6.530761
-0.119019,0.213501,-1.056274,32.958984,28.808592,-11.169433
-0.125732,0.256592,-0.953491,28.137205,28.198240,-18.676758
-0.152710,0.231445,-0.956787,15.991210,34.912109,-33.569336
-0.169800,0.128662,-1.067993,7.568359,43.395992,-41.870113
-0.166626,0.107544,-1.171509,-1.647949,45.288082,-35.522461
-0.170410,0.213257,-1.315063,-2.868652,37.292480,-32.165527
-0.187988,0.225952,-1.112671,5.249023,7.690429,-37.780762
-0.191772,0.186646,-0.957764,7.690429,-2.624511,-48.950191
-0.171997,0.107178,-0.832031,5.249023,12.145995,-50.292965
-0.174561,0.090332,-0.830566,-0.854492,19.287109,-48.156734
-0.191650,0.101563,-0.979614,-18.554687,33.325195,-48.217770
-0.188721,0.103882,-1.101074,-33.752441,35.949707,-49.316402
-0.181885,0.027100,-1.252075,-35.644531,17.639160,-45.104977
-0.182373,-0.012695,-1.044189,-34.729004,4.394531,-37.475586
-0.182007,0.072632,-0.742310,-36.010742,-6.225585,-24.597166
-0.185791,0.119385,-0.743896,-46.752926,16.418457,-30.395506
-0.211426,0.157959,-0.997314,-68.237305,30.883787,-53.588863
-0.217407,0.026367,-1.276367,-80.871574,26.794432,-62.744137
-0.215576,-0.099243,-1.300415,-94.787590,0.610352,-65.368652
-0.223755,-0.125122,-1.188599,-91.979973,-32.409668,-56.823727
-0.232178,-0.040283,-0.791626,-106.201164,-32.226562,-56.274410
-0.224365,-0.114502,-0.777832,-91.735832,-11.535644,-60.852047
-0.237427,-0.150513,-1.094482,-55.847164,16.906738,-58.532711
-0.244873,-0.122192,-1.188477,-52.612301,9.887695,-56.152340
-0.249634,-0.211304,-1.310547,-49.194332,2.807617,-59.020992
-0.252441,-0.273926,-1.205933,-31.494139,-24.536131,-53.405758
-0.243774,-0.214966,-0.915771,-27.099607,-46.569820,-43.029781
-0.230713,-0.216064,-0.861450,-37.963867,-30.273436,-42.419430
-0.223511,-0.207031,-0.996338,-46.691891,-17.761230,-42.358395
-0.233887,-0.207397,-1.166138,-64.758301,-10.681151,-45.715328
-0.236084,-0.257935,-1.262207,-69.213867,-19.958496,-52.062984
-0.248291,-0.406372,-1.337769,-45.776363,-46.508785,-40.710445
-0.234619,-0.328491,-1.039307,-35.461426,-59.326168,-28.137205
-0.202637,-0.246582,-0.868530,-23.742674,-55.480953,-19.104004
-0.184570,-0.316406,-0.990967,-19.287109,-34.057617,-22.460936
-0.184326,-0.293091,-1.083252,-35.095215,-28.259275,-18.310547
-0.178223,-0.215820,-1.243164,-43.884274,-31.311033,-20.874022
-0.180054,-0.328125,-1.288330,-51.208492,-47.790524,-35.095215
-0.174927,-0.409668,-0.982788,-48.156734,-72.692871,-36.254883
-0.164062,-0.440918,-0.860596,-45.654293,-65.490723,-27.526854
-0.126221,-0.489136,-0.895630,-47.668453,-54.626461,-20.935057
-0.101929,-0.431152,-1.044556,-51.086422,-44.067379,-8.117676
-0.087769,-0.462158,-1.142090,-51.452633,-51.086422,-8.605957
-0.081665,-0.504150,-1.124390,-51.391598,-67.993164,-5.798339
-0.064331,-0.494141,-0.942261,-53.100582,-77.636719,6.469726
-0.040283,-0.455933,-0.767700,-53.710934,-74.035645,11.047362
-0.015747,-0.470703,-0.746338,-52.856441,-56.762691,18.005371
-0.001709,-0.447266,-0.776978,-49.621578,-42.846676,24.536131
0.030029,-0.411621,-0.896484,-45.104977,-39.916992,25.146482
0.048218,-0.467773,-0.931519,-26.306150,-46.447750,23.254393
0.057861,-0.474609,-0.853760,-12.512206,-60.791012,27.343748
0.076294,-0.413208,-0.678467,-16.479492,-55.725094,28.259275
0.159668,-0.002441,-1.009399,24.902342,53.527828,31.066893
0.139771,0.019287,-1.121460,11.230468,42.053219,37.231445
0.124146,0.134766,-1.026245,6.225585,35.949707,39.916992
0.113281,0.241943,-0.947510,8.666992,34.240723,39.123535
0.113281,0.250000,-0.937012,21.972654,40.771481,31.982420
0.098999,0.221802,-1.034058,26.794432,45.043941,28.015135
0.082397,0.114502,-1.110596,27.770994,44.189449,22.094725
0.083130,0.126953,-1.091797,3.112793,36.682129,25.939939
0.078247,0.177002,-1.002686,7.751464,37.109375,23.925779
0.058228,0.182129,-0.975586,15.747069,37.597656,26.062010
0.047485,0.265503,-1.062988,21.972654,43.212887,27.465818
0.036987,0.279785,-1.126953,19.836426,42.297359,20.019531
0.022461,0.273804,-1.128784,17.150879,37.658691,18.188477
0.006836,0.282471,-1.025146,11.718749,30.212400,18.249512
0.005127,0.277344,-0.976929,4.638672,33.142090,14.099120
0.001465,0.316040,-1.001099,3.784179,36.804199,2.746582
-0.008423,0.219849,-1.031738,7.080078,35.827637,-3.967285
-0.025391,0.185425,-1.046631,10.681151,33.386230,-3.967285
-0.033813,0.210815,-1.039307,12.878417,29.052732,-0.732422
-0.046509,0.253296,-0.975952,13.793944,27.526854,-1.525879
-0.064575,0.274536,-0.937256,10.253905,30.334471,-5.310058
-0.068970,0.280640,-0.960083,6.591796,35.461426,-10.009766
-0.074829,0.262695,-0.957397,3.295898,34.423828,-14.221190
-0.090210,0.252808,-0.932129,1.403808,36.254883,-14.953612
-0.110107,0.273682,-1.029175,-0.305176,43.762203,-15.686034
-0.114502,0.278564,-1.098999,2.624511,44.067379,-19.714355
-0.125366,0.235107,-1.122192,3.479004,32.409668,-23.925779
-0.131348,0.174683,-0.999023,3.784179,28.808592,-22.338865
-0.134033,0.162231,-0.948486,4.150391,31.616209,-12.878417
-0.139526,0.171753,-0.969727,0.671387,39.489746,-3.234863
-0.152832,0.306396,-1.056641,-0.915527,40.100098,0.244141
-0.161743,0.414429,-1.125488,-1.464844,33.386230,-8.605957
-0.170532,0.329102,-1.068726,-0.732422,20.446775,-30.334471
-0.172485,0.254761,-0.980957,0.732422,14.526366,-36.926270
-0.182129,0.144653,-0.910034,7.995605,23.620604,-27.221678
-0.182617,0.191162,-0.945190,11.169433,28.747557,-20.080564
-0.186157,0.339722,-1.103027,6.713867,36.682129,-16.479492
-0.195190,0.271851,-1.159058,0.549316,27.404783,-32.958984
-0.194946,0.255737,-1.101074,-5.493164,9.338379,-36.621094
-0.201416,0.242432,-0.909302,-7.324218,6.652832,-35.339355
-0.204102,0.223755,-0.891357,-9.033203,18.310547,-32.165527
-0.206665,0.217896,-0.947388,-9.460449,30.273436,-31.921385
-0.201050,0.217773,-1.043213,-11.352538,32.836914,-27.404783
-0.208984,0.280029,-1.169800,-10.437011,32.409668,-27.160643
-0.226685,0.217529,-1.168823,-9.094238,18.615723,-36.926270
-0.224731,0.186401,-1.082153,-23.620604,3.723144,-41.381832
-0.215820,0.123291,-0.934937,-29.602049,3.662109,-39.916992
-0.220703,0.239502,-0.969360,-31.921385,12.207030,-29.541014
-0.222168,0.307739,-1.009399,-38.818359,14.831542,-36.926270
-0.229614,0.193970,-1.054932,-45.471188,10.620116,-53.405758
-0.216064,0.032959,-1.051636,-45.837399,8.666992,-49.804684
-0.229004,0.172363,-1.064453,-47.973629,4.455566,-34.912109
-0.236938,0.193970,-1.008423,-60.058590,-5.920410,-46.081539
-0.228760,0.160889,-0.897461,-68.359375,-4.821777,-52.917477
-0.222778,0.084106,-0.968018,-74.829102,8.544922,-61.340328
-0.216431,0.070801,-0.976318,-91.674797,11.291503,-62.927242
-0.219604,0.035278,-1.008545,-76.904297,17.211914,-71.228027
-0.241211,-0.102661,-1.175415,-56.823727,12.817382,-72.387695
-0.242432,-0.071045,-1.070313,-36.987305,-9.216309,-59.936520
-0.250122,-0.037231,-1.013062,-35.705566,-10.314940,-53.833004
-0.267334,-0.017212,-1.008423,-32.470703,-2.990722,-52.001949
-0.264404,-0.023682,-1.005005,-32.348633,0.000000,-50.781246
-0.252808,-0.016968,-1.125122,-46.325680,6.530761,-51.208492
-0.255493,-0.001465,-1.192749,-64.208984,-3.845215,-61.584469
-0.276001,-0.076294,-1.191772,-67.993164,-26.611326,-75.073242
-0.298340,-0.158569,-1.130127,-71.166992,-34.606934,-76.965332
-0.311523,-0.263550,-1.082031,-64.941406,-40.771481,-70.739746
-0.303833,-0.266113,-1.085449,-46.142574,-34.667969,-47.363277
-0.285278,-0.162842,-1.162842,-38.391113,-33.447266,-40.344234
-0.269653,-0.226929,-1.200562,-35.278320,-37.658691,-44.189449
-0.240356,-0.298828,-1.161621,-30.517576,-49.438473,-42.358395
-0.244141,-0.236450,-1.099243,-42.663570,-57.312008,-35.949707
-0.245117,-0.250854,-1.043945,-55.053707,-57.678219,-37.536621
-0.230225,-0.311401,-1.064087,-57.434078,-53.771969,-34.851074
-0.198120,-0.280273,-1.118652,-58.959957,-52.001949,-25.451658
-0.174927,-0.309692,-1.107666,-59.265133,-59.448238,-26.428221
-0.165527,-0.341309,-1.060913,-57.067867,-72.204590,-27.160643
-0.141602,-0.362305,-0.970093,-52.307125,-75.988770,-21.789549
-0.119263,-0.395020,-0.959106,-46.386715,-75.012207,-18.920898
-0.087402,-0.453491,-0.899658,-37.902832,-72.753906,-7.873535
-0.068481,-0.419312,-0.871948,-38.452148,-66.162109,9.399414
-0.037598,-0.318970,-0.879761,-43.212887,-59.326168,10.375976
-0.022705,-0.364136,-0.932007,-43.090816,-60.058590,6.286621
-0.004272,-0.438843,-0.814209,-41.687008,-68.786621,5.371093
0.004883,-0.446167,-0.736572,-43.273922,-63.964840,15.075683
0.020386,-0.453979,-0.733032,-40.283199,-44.616695,26.428221
0.045410,-0.436523,-0.875732,-35.827637,-37.658691,32.226562
0.070679,-0.369629,-0.883301,-28.503416,-40.222164,37.902832
0.076294,-0.353394,-0.827271,-26.306150,-50.903316,33.203125
0.082886,-0.366333,-0.717163,-34.729004,-49.194332,23.376463
0.083496,-0.465210,-0.737671,-43.212887,-45.349117,16.601562
0.099731,-0.577637,-0.692139,-52.062984,-42.053219,18.676758
0.112305,-0.573853,-0.679321,-45.410152,-30.639647,42.907711
0.136841,-0.520874,-0.743652,-37.475586,-23.986814,54.992672
0.154175,-0.423584,-0.760498,-16.357422,-21.545408,72.814941
0.172119,-0.373535,-0.721436,0.732422,-26.916502,73.852539
0.186646,-0.352295,-0.678711,2.563476,-31.677244,68.176270
0.211548,-0.248657,-0.650635,2.990722,-30.151365,62.866207
0.220215,-0.327515,-0.727661,11.291503,-22.460936,43.273922
0.224609,-0.409546,-0.742187,26.550291,-16.906738,46.081539
0.239990,-0.470215,-0.746338,42.541500,-10.925292,75.317383
0.270142,-0.310791,-0.796143,50.231930,-11.108397,86.608879
0.298096,-0.137695,-0.739014,57.922359,-21.484373,85.144035
0.290894,-0.085083,-0.668823,52.124020,-29.113768,61.645504
0.281738,-0.157959,-0.551636,41.687008,-19.897461,41.809078
0.283081,-0.285522,-0.608154,37.048340,-8.483887,45.288082
0.288574,-0.197876,-0.716431,30.517576,10.925292,72.448730
0.298706,-0.088623,-0.780518,31.555174,15.991210,87.524406
0.318848,-0.007324,-0.844482,34.484863,11.962890,81.848137
0.333862,-0.071655,-0.755859,35.949707,0.244141,67.260742
0.341675,-0.048584,-0.731079,28.320311,-0.976562,65.429687
0.325439,-0.000610,-0.683960,22.033689,0.610352,59.631344
0.299561,-0.043213,-0.551025,20.629881,5.310058,59.020992
0.323242,0.023193,-0.724731,21.423338,31.921385,68.298340
0.331299,0.082153,-0.868408,28.320311,40.771481,70.251465
0.327271,0.105835,-0.871704,33.386230,32.043457,64.758301
0.297729,0.039063,-0.742432,38.269043,24.475096,55.114742
0.279053,0.007446,-0.725220,27.160643,36.621094,54.443356
0.274414,0.021118,-0.769043,8.117676,51.818844,62.438961
0.288940,0.240356,-0.931030,4.333496,56.335445,64.270020
0.268311,0.264282,-1.021362,15.747069,50.659176,47.973629
0.248657,0.129639,-1.006104,31.249998,37.719727,28.930662
0.239380,0.011108,-0.908813,31.494139,35.339355,33.142090
0.238403,0.133789,-0.964600,23.315428,41.381832,43.762203
0.234741,0.128662,-1.012329,10.681151,43.212887,35.644531
0.222168,0.117920,-1.075684,0.915527,36.560059,31.738279
0.226318,0.150635,-1.028931,3.112793,31.982420,29.541014
0.223999,0.125122,-0.949707,20.019531,30.090330,29.052732
-0.262085,0.211060,-0.942749,-18.798828,21.240232,-45.898434
-0.279175,0.171997,-0.995117,-32.470703,18.737793,-59.143063
-0.290649,0.088013,-1.084106,-38.940430,17.700195,-62.622066
-0.291260,0.051147,-1.154419,-47.668453,9.765625,-58.288570
-0.293457,0.032715,-1.046387,-50.354000,-8.422852,-48.034664
-0.307007,0.013672,-0.783691,-46.264645,2.258301,-35.949707
-0.312622,0.075684,-0.916504,-44.738766,16.174316,-33.203125
-0.287842,0.122070,-1.112793,-57.006832,25.024412,-40.161129
-0.288940,0.128174,-1.128296,-84.411613,11.779784,-54.565426
-0.307373,0.080200,-1.057129,-97.351067,7.202148,-65.368652
-0.330444,-0.152588,-1.039307,-71.105957,3.295898,-77.758789
-0.324341,-0.064209,-0.885986,-39.062500,-6.774902,-52.856441
-0.326782,0.011719,-0.919678,-35.522461,11.718749,-48.706051
-0.323486,-0.043335,-1.163208,-33.691406,17.822266,-54.748531
-0.321899,-0.055176,-1.218506,-37.597656,3.417969,-57.006832
-0.341187,-0.032349,-1.087769,-49.255367,-21.240232,-58.532711
-0.354248,-0.055054,-0.993042,-60.302731,-28.137205,-61.950680
-0.350708,-0.127319,-0.915771,-68.298340,-22.033689,-61.218258
-0.338745,-0.156738,-1.097046,-82.946770,-4.394531,-55.908199
-0.345459,-0.173218,-1.219116,-76.538086,-7.751464,-51.574703
-0.358398,-0.134888,-1.218384,-58.227535,-27.648924,-46.997066
-0.370239,-0.132324,-1.173706,-47.485348,-36.010742,-50.048824
-0.355835,-0.250977,-1.117554,-22.827147,-46.020504,-54.809566
-0.323853,-0.296387,-1.115112,-18.432617,-48.889156,-48.339840
-0.312866,-0.303955,-1.128784,-27.038572,-53.894039,-37.597656
-0.299194,-0.204346,-1.116699,-36.560059,-57.312008,-32.836914
-0.295044,-0.190186,-1.110718,-52.307125,-61.523434,-36.621094
-0.292969,-0.322998,-1.074829,-54.931637,-66.528320,-42.846676
-0.281128,-0.351196,-1.031250,-54.687496,-70.556641,-33.142090
-0.246094,-0.325073,-0.974487,-56.945797,-69.519043,-26.245115
-0.219971,-0.309937,-1.040039,-56.640621,-64.941406,-17.089844
-0.209229,-0.333252,-1.079468,-44.433590,-69.396973,-12.512206
-0.190552,-0.357178,-1.005493,-34.240723,-79.101562,-5.737304
-0.157837,-0.368530,-0.912476,-33.630371,-78.186035,-3.540039
-0.122559,-0.386353,-0.925293,-40.710445,-73.059082,-1.281738
-0.102661,-0.381592,-0.903320,-45.288082,-72.753906,4.882812
-0.070923,-0.336426,-0.862183,-43.640133,-67.993164,10.131835
-0.044556,-0.320313,-0.950806,-39.855957,-67.260742,8.483887
-0.014526,-0.341431,-0.958740,-27.893064,-76.904297,3.173828
-0.004395,-0.337402,-0.914062,-21.118162,-85.083000,3.479004
0.009399,-0.393921,-0.744385,-13.793944,-78.247070,4.760742
0.039429,-0.437012,-0.679810,-11.718749,-68.298340,8.605957
0.069092,-0.384277,-0.758423,-18.127441,-50.476070,18.737793
0.085693,-0.354370,-0.822388,-30.822752,-44.982906,23.559568
0.115356,-0.283569,-0.929199,-37.719727,-50.109859,23.437498
0.115967,-0.276367,-0.968506,-35.888672,-56.945797,18.432617
0.096436,-0.447754,-0.778564,-22.521971,-78.918457,2.014160
0.099365,-0.585571,-0.585205,-15.075683,-81.665031,4.821777
0.132690,-0.661499,-0.438965,-25.878904,-44.006344,38.940430
0.180542,-0.445435,-0.730347,-29.235838,-24.719236,53.344723
0.220459,-0.320801,-1.040771,-21.179197,-18.859863,60.546871
0.224243,-0.305054,-1.050049,-0.244141,-52.429195,56.274410
0.215942,-0.322021,-0.815552,10.070800,-69.946289,50.842281
0.233276,-0.427124,-0.542603,22.277830,-82.641594,39.855957
0.268433,-0.455933,-0.404907,18.371582,-57.434078,49.743649
0.280396,-0.420044,-0.456055,0.976562,-19.348145,67.749023
0.297241,-0.346436,-0.607056,-5.737304,-10.009766,73.730469
0.330322,-0.259644,-0.752319,-0.976562,-3.662109,79.467773
0.343750,-0.243408,-0.775879,15.075683,-8.850098,75.012207
0.356201,-0.267334,-0.706055,27.770994,-12.573241,72.937012
0.363037,-0.237793,-0.659302,31.982420,-11.901855,75.744629
0.359131,-0.149048,-0.613037,29.663084,-11.901855,76.477051
0.353760,-0.137085,-0.595825,23.986814,-7.263183,64.270020
0.363770,-0.155396,-0.611450,20.568846,-1.464844,59.387203
0.381470,-0.180176,-0.788696,15.686034,15.014647,58.837887
0.384155,-0.202271,-0.860107,22.949217,13.610839,66.406250
0.379150,-0.172974,-0.805664,28.198240,2.929687,78.796387
0.370972,-0.078125,-0.651733,29.174803,1.953125,82.092278
0.382446,0.015259,-0.565186,32.348633,9.399414,81.237785
0.381470,0.054199,-0.570923,29.296873,23.620604,69.396973
0.370850,0.033447,-0.667969,25.390623,31.799314,61.767574
0.355957,-0.062866,-0.878052,19.653320,45.104977,54.321285
0.352539,-0.097168,-0.929932,15.686034,38.208008,62.377926
0.350098,0.026733,-0.850586,13.122558,31.738279,69.396973
0.333130,0.110596,-0.716187,16.235352,29.052732,66.040039
0.334229,0.092041,-0.687500,25.268553,41.625973,55.603024
0.312988,0.030640,-0.748047,23.010252,59.448238,56.091305
0.314697,0.060181,-0.995117,15.747069,64.147949,59.814449
0.304199,0.102173,-1.075562,2.136230,52.734371,60.180660
0.272217,0.118774,-1.006592,1.098633,35.827637,58.837887
0.255371,0.236816,-0.852783,4.577637,34.301758,59.997555
0.243774,0.244385,-0.782593,18.432617,41.625973,51.696774
0.241333,0.187012,-0.773437,17.272949,57.250973,44.982906
0.235840,0.204224,-0.941772,8.789063,66.833496,45.898434
0.217896,0.179199,-1.187256,-7.995605,71.838379,36.254883
0.214600,0.135620,-1.239868,-8.605957,52.551266,27.709959
0.210449,0.163696,-1.127930,8.300781,29.968260,33.447266
0.197021,0.212036,-0.850586,21.789549,27.465818,33.569336
0.177856,0.159546,-0.841797,39.184570,44.921871,27.587889
0.171265,0.138794,-0.935547,28.320311,62.683102,24.597166
0.163818,0.140991,-1.165405,18.188477,64.514160,25.268553
0.135620,0.154175,-1.158813,5.126953,49.011227,25.329588
0.122314,0.139160,-1.047607,4.821777,33.447266,23.803709
0.106445,0.139771,-0.934570,4.272461,41.625973,27.160643
0.090942,0.162109,-0.923462,2.380371,46.386715,27.282713
0.090454,0.188965,-0.948364,-4.211426,56.945797,27.465818
0.093384,0.271606,-1.144043,-12.878417,57.556149,18.981934
0.076660,0.158691,-1.207275,-8.361816,48.461910,8.911133
0.048096,0.097046,-1.051636,15.441894,30.639647,5.187988
0.031128,0.133789,-0.981323,28.015135,31.005857,10.375976
0.011230,0.126953,-0.975342,31.433104,35.705566,10.803222
0.005005,0.168213,-1.005737,18.371582,42.419430,14.282226
0.001587,0.197021,-1.028442,0.915527,43.701168,12.268065
-0.014648,0.181396,-1.061768,-0.915527,41.687008,10.009766
-0.033691,0.150391,-1.028564,1.159668,36.071777,9.338379
-0.039429,0.162720,-0.993774,0.183105,33.691406,12.634276
-0.051392,0.236450,-0.921509,-4.882812,40.283199,10.192870
-0.069946,0.257202,-0.999146,-4.333496,46.081539,5.126953
-0.074219,0.242187,-1.069824,4.333496,47.058102,-3.417969
-0.086792,0.236694,-1.089966,14.160155,34.118652,-7.690429
-0.107056,0.180542,-0.976562,15.502929,31.066893,-10.253905
-0.122681,0.162109,-0.976807,10.253905,37.109375,-8.178711
-0.124146,0.199707,-1.020752,7.263183,41.137691,-0.427246
-0.128784,0.325317,-1.038940,4.150391,39.367676,-0.366211
-0.154663,0.262695,-0.996704,1.647949,37.353516,-10.559081
-0.174805,0.205322,-1.017212,4.577637,41.015621,-10.803222
-0.177246,0.234009,-1.050537,2.746582,40.832516,-10.498046
-0.182373,0.217896,-1.051880,4.943848,36.926270,-13.977050
-0.191040,0.229614,-0.960815,7.507324,31.982420,-13.793944
-0.202759,0.296875,-1.076294,6.225585,39.306641,-10.192870
-0.216553,0.286987,-1.137573,16.479492,30.395506,-15.441894
-0.233154,0.236938,-1.037109,22.094725,21.423338,-15.930175
-0.236572,0.261841,-0.913330,25.817869,20.446775,-9.887695
-0.232178,0.262451,-0.925659,25.390623,34.484863,-8.850098
-0.214722,0.318604,-1.000244,16.174316,38.940430,-12.084960
-0.220215,0.363770,-1.106445,10.498046,36.499023,-19.348145
-0.244995,0.246582,-1.112671,4.516602,24.475096,-34.240723
-0.263672,0.202393,-1.036255,2.990722,12.512206,-31.921385
-0.071045,-0.378052,-1.087402,-61.096188,-65.734863,10.620116
-0.037109,-0.349731,-1.155396,-55.541988,-82.275383,12.695312
-0.036743,-0.379028,-1.045654,-41.198727,-115.112297,6.774902
-0.014526,-0.468872,-0.553223,-28.991697,-109.985344,17.578125
0.044678,-0.387329,-0.464233,-29.785154,-85.754387,27.587889
0.077026,-0.318237,-0.715454,-39.428711,-48.461910,31.005857
0.087769,-0.312988,-0.788086,-46.508785,-44.311520,22.583006
0.108643,-0.345459,-0.931885,-33.569336,-49.621578,17.578125
0.127441,-0.441284,-0.922241,-24.658201,-58.227535,18.676758
0.130737,-0.431274,-0.701294,-20.202635,-73.791504,28.076170
0.138550,-0.426392,-0.614258,-29.785154,-68.542480,31.555174
0.154907,-0.428589,-0.562378,-37.353516,-61.523434,32.043457
0.178955,-0.396973,-0.585815,-42.358395,-45.959469,39.550781
0.200317,-0.335449,-0.727783,-29.907225,-28.564451,49.438473
0.208862,-0.313721,-0.769653,-13.000487,-28.259275,49.804684
0.219238,-0.390625,-0.729736,-1.831055,-31.066893,48.889156
0.240234,-0.436279,-0.633911,19.409180,-30.212400,58.959957
0.257324,-0.400024,-0.632935,29.418943,-20.141600,69.641113
0.288330,-0.320679,-0.723267,30.029295,-17.150879,70.129395
0.290039,-0.256470,-0.740845,31.677244,-21.240232,65.307617
0.280640,-0.282471,-0.716553,37.841797,-24.841307,55.725094
0.274658,-0.391602,-0.624390,44.555660,-14.465331,70.434570
0.306152,-0.295654,-0.657837,48.095699,-5.554199,83.068840
0.340454,-0.104980,-0.738525,48.400875,2.929687,91.613762
0.344116,-0.083130,-0.754272,40.466305,0.061035,74.645996
0.343872,-0.125854,-0.791382,36.010742,-1.647949,67.321777
0.344360,-0.167847,-0.791382,31.433104,-7.629394,61.218258
0.345947,-0.190186,-0.626709,33.142090,-11.413573,71.533203
0.345825,-0.107788,-0.593628,32.653809,1.281738,87.280266
0.364380,0.037598,-0.669434,32.897949,8.911133,85.876457
0.374146,0.023804,-0.815674,34.118652,18.188477,73.303223
0.373291,-0.006836,-0.855225,32.104492,14.221190,66.101074
0.361450,-0.018677,-0.834839,32.226562,7.629394,68.115234
0.344238,0.010376,-0.752319,35.217285,7.629394,70.251465
0.348389,0.084351,-0.759033,43.212887,15.075683,73.974609
0.353149,0.130737,-0.805054,45.471188,21.423338,72.082520
0.349854,0.170166,-0.880127,44.189449,21.057127,68.969727
0.333130,0.181641,-0.831787,36.987305,15.624999,63.293453
0.326538,0.185181,-0.798218,24.169920,19.104004,60.668941
0.322266,0.200806,-0.783081,15.869140,28.442381,59.753414
0.311279,0.224854,-0.795776,13.793944,32.897949,57.617184
0.300903,0.235474,-0.881836,6.774902,42.785641,53.894039
0.299683,0.248047,-0.981567,2.990722,48.767086,52.551266
0.308105,0.299927,-1.133911,5.249023,34.790039,46.081539
0.302368,0.266846,-0.994507,8.972168,24.291990,39.367676
0.279785,0.151001,-0.792725,15.502929,18.798828,31.616209
0.272339,0.139526,-0.790649,15.930175,34.851074,37.353516
0.265503,0.207397,-0.880371,12.207030,40.954586,39.916992
0.246704,0.238525,-0.945312,3.967285,45.227047,36.926270
0.227661,0.219116,-1.030884,4.516602,45.471188,32.287598
0.222534,0.215576,-1.005859,9.643555,35.705566,32.653809
0.212769,0.236572,-0.888916,13.244628,33.081055,32.836914
0.192993,0.225220,-0.863281,20.568846,35.827637,27.954100
0.180786,0.199097,-0.852783,18.981934,40.283199,23.681639
0.165161,0.186401,-0.863892,14.831542,44.860836,25.085447
0.159790,0.240479,-1.069336,6.408691,55.541988,27.954100
0.153076,0.254395,-1.143677,3.906250,44.555660,24.841307
0.130005,0.248291,-0.993652,7.995605,28.015135,21.118162
0.102905,0.220581,-0.841675,10.437011,30.883787,20.446775
0.088867,0.198364,-0.944824,9.887695,46.997066,23.254393
0.082275,0.223511,-1.020874,4.516602,51.269527,28.320311
0.068359,0.299927,-1.058716,0.610352,47.973629,28.320311
0.047363,0.368774,-1.146973,-10.803222,45.837399,22.949217
0.034180,0.330200,-1.176880,-2.319336,39.062500,6.408691
0.024292,0.194580,-1.137573,15.258788,33.630371,6.469726
0.040649,0.292969,-1.009521,37.414551,23.864744,19.042969
0.043945,0.338623,-0.959839,39.062500,25.512693,18.005371
0.025146,0.336792,-0.893066,24.291990,32.836914,11.413573
-0.000610,0.332520,-0.867676,14.770507,37.780762,10.681151
-0.010376,0.384766,-0.949585,1.586914,48.156734,8.911133
-0.013916,0.399780,-1.042114,-0.061035,52.368160,0.976562
-0.040283,0.331665,-1.133545,3.723144,46.997066,-3.295898
-0.051147,0.286255,-0.984863,11.474608,30.517576,-2.441406
-0.055908,0.327515,-0.909180,10.620116,29.907225,2.929687
-0.086426,0.330933,-0.843628,9.765625,40.405270,-0.427246
-0.108887,0.291016,-0.839355,6.835937,46.508785,1.831055
-0.112427,0.465332,-0.954468,-2.197266,57.983395,7.873535
-0.117676,0.492065,-1.021484,-0.915527,57.250973,-6.591796
-0.136963,0.414062,-1.075073,1.770019,51.818844,-14.404296
-0.160889,0.290161,-0.948364,7.995605,38.940430,-21.179197
-0.169189,0.227661,-0.880371,12.390136,42.785641,-14.953612
-0.175537,0.209595,-0.894531,8.239746,58.288570,5.432128
-0.184937,0.424072,-1.022339,4.760742,62.133785,11.596679
-0.199463,0.510864,-1.104004,-1.220703,57.678219,-2.990722
-0.210449,0.473633,-1.118896,-0.732422,44.799801,-25.573729
-0.245728,0.309326,-1.027466,6.408691,33.630371,-34.973145
-0.264893,0.167114,-0.943970,9.155273,35.522461,-30.639647
-0.254761,0.274414,-1.083618,4.455566,47.851559,-9.460449
-0.250610,0.346191,-1.144409,1.403808,44.738766,1.464844
-0.256592,0.420776,-1.094727,8.728027,30.395506,-1.220703
-0.262817,0.467041,-1.005615,11.596679,27.099607,-5.676269
-0.278442,0.385010,-0.973145,8.666992,24.047850,-22.766111
-0.279785,0.327271,-0.936035,-3.906250,22.644041,-32.897949
-0.269287,0.346924,-0.938354,-10.620116,26.306150,-30.944822
-0.261108,0.374390,-1.010620,-16.052246,32.104492,-27.465818
-0.259033,0.353516,-1.044434,-9.887695,29.113768,-24.230955
-0.269775,0.355347,-1.031616,-0.427246,13.427733,-24.230955
-0.289063,0.368408,-0.850830,-1.403808,8.361816,-27.343748
-0.299194,0.400635,-0.834961,-15.808105,16.479492,-35.644531
-0.296387,0.420166,-0.899780,-31.799314,28.686522,-44.738766
-0.279419,0.381836,-1.043457,-34.851074,28.808592,-49.255367
-0.263550,0.325439,-1.051392,-34.423828,18.066406,-51.208492
-0.263916,0.280518,-0.986084,-33.569336,6.530761,-49.743649
-0.269409,0.280884,-0.935913,-42.419430,-1.770019,-50.048824
-0.274414,0.327393,-0.854248,-52.062984,-2.563476,-51.330563
-0.278320,0.316406,-0.862793,-63.842770,3.784179,-57.800289
-0.276123,0.285522,-0.871094,-71.472168,10.986327,-62.927242
-0.271118,0.250977,-0.953369,-77.697754,17.089844,-65.185547
-0.284058,0.168701,-1.021606,-80.139160,14.221190,-67.016602
-0.296143,0.131836,-0.908813,-87.341301,1.525879,-67.626953
-0.299438,0.165161,-0.874146,-104.064934,6.042480,-70.495605
-0.301147,0.120117,-0.943359,-102.172844,18.371582,-79.162598
-0.302612,-0.022949,-1.177856,-60.424801,25.390623,-79.406738
-0.305542,0.108887,-0.984985,-47.668453,-0.976562,-62.255856
-0.321655,0.115723,-0.927124,-57.495113,3.173828,-70.007324
-0.335205,-0.011230,-1.021362,-56.579586,9.338379,-72.753906
-0.327271,-0.015259,-1.112183,-48.706051,7.812500,-63.476559
-0.326782,0.046753,-1.095825,-48.583981,-5.981445,-57.556149
-0.340454,0.074463,-1.085449,-53.833004,-9.033203,-68.420410
-0.352539,-0.049927,-1.133667,-55.541988,-9.948730,-71.044922
-0.356323,-0.096191,-1.098267,-60.546871,-17.150879,-65.673828
-0.352051,-0.118164,-1.081909,-68.420410,-19.592285,-57.250973
-0.348267,-0.136963,-1.124146,-65.795898,-20.080564,-46.447750
-0.345825,-0.092285,-1.185791,-58.288570,-24.047850,-41.198727
-0.334351,-0.034790,-1.215210,-45.104977,-35.583496,-37.902832
-0.331665,-0.071289,-1.196655,-27.893064,-50.720211,-43.273922
-0.323853,-0.169067,-1.068604,-20.751951,-56.945797,-38.757324
-0.295898,-0.128540,-1.028809,-23.132322,-54.077145,-33.630371
0.353882,-0.033325,-0.815186,29.479979,24.658201,51.330563
0.334717,-0.084229,-0.909912,33.508301,17.150879,46.936031
0.312378,-0.132080,-0.850464,35.644531,12.512206,47.302242
0.311646,-0.052124,-0.743286,33.752441,12.817382,57.250973
0.309204,0.035278,-0.730591,24.597166,24.475096,58.715816
0.297729,0.061768,-0.797607,21.545408,30.822752,51.696774
0.295166,-0.003540,-1.037598,19.653320,39.550781,41.992184
0.290894,-0.030640,-1.094238,19.958496,27.221678,46.264645
0.287598,-0.006470,-0.997559,24.536131,13.305663,55.847164
0.298706,0.102661,-0.865723,27.832029,11.962890,56.518551
0.297729,0.159424,-0.742432,30.700682,14.526366,49.682613
0.292236,0.171509,-0.728271,27.221678,26.916502,39.123535
0.281250,0.187866,-0.854614,23.254393,33.325195,31.738279
0.263306,0.049316,-0.973877,19.165039,37.231445,21.179197
0.246704,0.023560,-0.977173,18.615723,33.569336,35.583496
0.233643,0.139282,-0.937744,21.484373,33.508301,48.278805
0.232910,0.269775,-0.957642,23.254393,33.691406,45.959469
0.219604,0.244141,-0.920654,24.597166,30.517576,31.616209
0.210205,0.219971,-0.900513,23.071287,32.165527,22.521971
0.196777,0.212036,-0.934082,21.118162,33.935547,18.249512
0.182251,0.070679,-0.947510,17.822266,36.254883,11.718749
0.174927,0.032104,-0.981812,14.038085,42.602535,25.878904
0.169189,0.127686,-1.090576,13.366698,42.541500,34.729004
0.157349,0.227661,-1.041138,14.221190,31.433104,38.024902
0.145874,0.230103,-0.958618,15.441894,24.902342,30.761717
0.129517,0.205078,-0.865356,16.357422,33.752441,27.465818
0.114990,0.224243,-0.909424,15.686034,38.879395,27.038572
0.104614,0.246704,-0.944946,13.549804,43.945309,25.329588
0.091187,0.249268,-1.004272,14.038085,43.334957,21.301268
0.082275,0.234253,-1.051147,14.770507,41.564938,20.324705
0.077026,0.215820,-1.017578,16.784668,34.179687,18.920898
0.067993,0.221436,-0.960205,13.732909,29.174803,19.592285
0.041260,0.207520,-0.874634,11.840819,32.043457,18.493652
0.032593,0.203247,-0.955444,10.803222,43.579098,19.287109
0.035400,0.258057,-0.988525,6.225585,45.837399,23.681639
0.029907,0.348145,-1.042969,1.586914,45.532223,21.118162
0.010742,0.289917,-1.051025,-9.582520,40.710445,7.324218
-0.004028,0.234009,-1.007446,9.948730,33.386230,4.699707
-0.025513,0.286621,-0.928467,21.911619,37.414551,9.277344
-0.036743,0.312622,-0.985229,24.291990,41.931149,7.141113
-0.034546,0.308838,-1.005493,18.249512,44.677731,2.807617
-0.040649,0.299316,-1.025024,7.385253,45.471188,0.793457
-0.065796,0.270752,-1.058350,1.281738,44.555660,0.488281
-0.089722,0.294189,-1.033936,-6.652832,39.550781,1.831055
-0.101196,0.323730,-1.023193,-10.131835,38.024902,-1.831055
-0.114380,0.309082,-1.041504,-10.742187,38.513184,-7.141113
-0.107056,0.328491,-1.078735,-9.887695,38.085937,-6.591796
-0.110718,0.367310,-1.047852,-2.380371,30.639647,-8.239746
-0.124878,0.364258,-0.959961,5.432128,23.376463,-15.075683
-0.161133,0.295654,-0.845581,6.408691,36.132812,-18.859863
-0.176758,0.244873,-0.935913,1.770019,45.593258,-16.784668
-0.173584,0.286255,-1.092773,-9.643555,55.847164,-10.803222
-0.173462,0.301758,-1.130737,-11.901855,46.264645,-12.756347
-0.184448,0.302002,-1.114014,-10.253905,39.245605,-13.916015
-0.205933,0.313477,-1.069214,-4.455566,29.296873,-12.268065
-0.209229,0.345337,-1.030762,-1.708984,23.254393,-17.150879
-0.202271,0.332886,-0.970093,-4.089355,23.681639,-32.226562
-0.197632,0.221436,-0.959961,-7.934570,26.611326,-33.081055
-0.204346,0.267944,-1.031372,-13.061522,32.348633,-24.291990
-0.210327,0.318970,-1.038452,-11.535644,25.451658,-28.259275
-0.217896,0.333984,-0.952271,-12.268065,22.033689,-35.217285
-0.218628,0.320190,-1.036377,-12.695312,27.038572,-41.809078
-0.221191,0.293091,-1.050659,-9.277344,21.911619,-46.569820
-0.226807,0.233398,-0.973999,-8.972168,14.099120,-52.368160
-0.228027,0.087646,-0.863281,-10.803222,17.089844,-49.072262
-0.211548,0.204956,-0.952026,-21.423338,31.494139,-28.198240
-0.216675,0.285156,-1.044312,-29.785154,35.339355,-27.404783
-0.235229,0.240112,-1.111328,-32.775879,22.094725,-41.381832
-0.242554,0.165771,-1.069946,-32.897949,16.906738,-42.236324
-0.249268,0.119873,-1.004883,-33.081055,11.779784,-37.963867
-0.244385,0.122437,-0.970093,-34.729004,12.817382,-28.137205
-0.234863,0.245728,-0.956543,-34.973145,14.831542,-26.123045
-0.253540,0.202759,-0.948242,-32.836914,16.052246,-41.076656
-0.270142,0.048828,-1.008423,-36.376953,19.042969,-51.696774
-0.278564,0.056641,-1.063721,-52.307125,19.226074,-42.053219
-0.278320,0.069580,-1.103882,-54.138180,15.319823,-37.414551
-0.272217,0.116089,-1.004761,-55.786129,4.394531,-28.686522
-0.275146,0.148437,-0.961426,-62.011715,0.549316,-33.630371
-0.275879,0.130249,-0.981201,-65.551758,0.915527,-47.790524
-0.276123,0.051636,-1.026123,-69.580078,-1.403808,-53.283688
-0.271729,-0.003540,-1.026855,-76.293945,-5.310058,-56.518551
-0.277954,0.025269,-0.994141,-103.820793,-7.324218,-59.814449
-0.291504,-0.045410,-0.962036,-87.585442,-2.319336,-66.467285
-0.298706,-0.078735,-1.044434,-73.547363,-2.380371,-61.889645
-0.293701,-0.027954,-1.054077,-52.551266,-5.737304,-55.847164
-0.299805,-0.062500,-1.050415,-33.935547,-8.666992,-61.157223
-0.317627,-0.230957,-1.044678,-28.198240,-11.474608,-53.222652
-0.324219,-0.211548,-1.049072,-32.287598,-11.657714,-42.846676
-0.319458,-0.102783,-1.102295,-38.818359,-10.559081,-31.982420
-0.320923,-0.043823,-1.151367,-39.978027,-12.939452,-34.240723
-0.332397,-0.028564,-1.170532,-41.381832,-22.949217,-44.433590
-0.344360,-0.097168,-1.135376,-40.893551,-30.883787,-50.170895
-0.322998,-0.261597,-1.112671,-34.545898,-29.968260,-45.776363
-0.303955,-0.176025,-1.176880,-26.855467,-29.296873,-26.672361
-0.303955,-0.109619,-1.152466,-26.245115,-46.936031,-28.686522
-0.283569,-0.110962,-1.012695,-25.634764,-54.870602,-39.733887
-0.254761,-0.143555,-1.044800,-28.198240,-52.612301,-42.785641
-0.246338,-0.227539,-1.029785,-37.902832,-54.077145,-49.377438
-0.234009,-0.307251,-0.979370,-45.898434,-56.884762,-47.851559
-0.226929,-0.356079,-0.982422,-42.358395,-55.053707,-39.123535
-0.205933,-0.351929,-0.959717,-40.283199,-55.725094,-31.249998
-0.183228,-0.250000,-0.967285,-44.799801,-54.382320,-20.812986
-0.159058,-0.278809,-0.999878,-46.752926,-54.260250,-22.094725
-0.145264,-0.292847,-0.993896,-42.907711,-56.579586,-18.859863
-0.128418,-0.314819,-0.924561,-41.809078,-57.128902,-17.395020
-0.111572,-0.381714,-0.870361,-42.663570,-53.283688,-14.160155
-0.080444,-0.408325,-0.901611,-47.790524,-44.738766,-5.371093
-0.065430,-0.408691,-0.931274,-49.560543,-41.564938,1.586914
-0.050537,-0.439209,-1.000854,-46.203609,-43.212887,3.906250
-0.045654,-0.434448,-0.955200,-32.653809,-52.612301,10.681151
-0.029663,-0.386108,-0.807617,-17.883301,-57.434078,16.662598
-0.011475,-0.371826,-0.785034,-15.197753,-47.241207,16.357422
0.013428,-0.398926,-0.893311,-25.085447,-42.297359,14.099120
0.007690,-0.459961,-0.942505,-31.127928,-46.752926,13.671874
0.024170,-0.468384,-0.880127,-39.550781,-56.030270,18.737793
0.036987,-0.445312,-0.853882,-40.771481,-55.419918,30.334471
0.065063,-0.405396,-0.764282,-35.827637,-46.325680,44.067379
0.094482,-0.325195,-0.750977,-31.921385,-39.184570,48.156734
0.122070,-0.317505,-0.803955,-28.137205,-31.005857,43.090816
0.133057,-0.347656,-0.822876,-27.526854,-31.921385,33.569336
0.145386,-0.390137,-0.869263,-21.667479,-39.794922,29.113768
0.162109,-0.380737,-0.789917,-18.676758,-44.860836,27.709959
0.172607,-0.412598,-0.677734,-10.559081,-45.837399,26.977537
0.175903,-0.423340,-0.629272,-3.051758,-34.851074,33.874512
0.200195,-0.419434,-0.652100,-0.610352,-25.512693,37.841797
0.224854,-0.388184,-0.837158,1.708984,-9.094238,46.386715
0.228271,-0.361206,-0.911621,5.371093,-11.596679,49.438473
0.220947,-0.388916,-0.890259,11.840819,-25.878904,44.860836
0.013672,0.328857,-0.842407,13.916015,48.156734,15.075683
-0.017090,0.299927,-0.933838,-18.554687,65.917969,5.126953
-0.037476,0.256836,-1.168213,-14.587401,68.969727,5.065917
-0.034302,0.371826,-1.159180,4.577637,50.415035,9.887695
-0.037964,0.391235,-1.083984,20.996092,36.804199,0.305176
-0.067383,0.364868,-0.964478,23.254393,36.071777,-3.234863
-0.105957,0.421753,-0.930298,15.502929,43.884274,-5.249023
-0.115479,0.425537,-0.974487,6.225585,57.739254,-11.779784
-0.114624,0.401123,-1.143677,-4.089355,62.622066,-18.432617
-0.118408,0.337891,-1.251099,-6.530761,58.410641,-21.545408
-0.126099,0.326172,-1.159912,-5.065917,41.320797,-21.362303
-0.138062,0.352783,-1.045532,1.281738,30.090330,-19.409180
-0.156860,0.334351,-0.882324,6.591796,44.494625,-18.920898
-0.151978,0.379150,-1.047119,6.958007,54.199215,-18.737793
-0.143433,0.413330,-1.163330,7.019042,52.734371,-26.733397
-0.161255,0.350464,-1.203979,6.774902,34.301758,-35.888672
-0.214233,0.211792,-1.053833,4.577637,27.404783,-36.193848
-0.221069,0.237061,-1.014038,-4.943848,29.907225,-31.860350
-0.206177,0.255493,-1.061768,-16.662598,36.621094,-34.240723
-0.178833,0.232666,-1.091553,-19.409180,34.667969,-35.339355
-0.184937,0.217041,-1.057007,-13.000487,28.869627,-32.104492
-0.199219,0.224976,-1.030029,-2.746582,22.766111,-32.287598
-0.210815,0.232178,-0.973389,-1.098633,22.583006,-41.625973
-0.204834,0.175171,-1.026489,-4.943848,23.620604,-46.264645
-0.194702,0.131226,-1.003784,-16.113281,21.606443,-43.945309
-0.193237,0.181885,-0.995239,-26.916502,22.033689,-36.987305
-0.213867,0.231445,-1.035034,-30.883787,22.766111,-40.039062
-0.227051,0.114380,-0.996460,-35.339355,20.263670,-45.288082
-0.221313,0.131348,-0.977051,-41.442867,24.108885,-33.569336
-0.210205,0.288330,-1.052246,-46.142574,21.911619,-43.029781
-0.233154,0.233276,-1.037109,-48.095699,15.258788,-56.518551
-0.249634,0.073975,-1.008179,-48.217770,9.399414,-70.922852
-0.245728,0.051147,-1.021484,-53.161617,13.671874,-64.025879
-0.243652,0.107178,-1.053101,-58.471676,13.122558,-61.828609
-0.257568,0.098145,-0.979492,-66.528320,5.676269,-65.002441
-0.266602,0.087158,-0.950439,-74.340820,8.483887,-66.040039
-0.291260,0.118530,-1.021973,-87.524406,20.202635,-80.444328
-0.312866,-0.105347,-1.263184,-78.247070,20.141600,-86.914055
-0.316040,-0.077881,-1.283569,-61.401363,-2.197266,-73.913574
-0.321655,-0.055542,-1.222412,-50.109859,-18.981934,-68.420410
-0.323975,-0.139893,-1.060059,-41.076656,-25.207518,-60.546871
-0.310913,-0.104126,-0.958252,-40.222164,-19.226074,-52.185055
-0.322876,0.043579,-1.179443,-47.912594,-1.953125,-46.203609
-0.335571,0.018188,-1.274048,-58.349606,-14.099120,-65.551758
-0.340698,-0.161255,-1.309692,-61.218258,-32.592773,-67.077637
-0.330566,-0.149414,-1.332886,-57.495113,-40.649410,-60.913082
-0.323853,-0.180420,-1.159546,-38.330078,-62.561031,-56.457516
-0.307739,-0.232544,-1.020386,-27.404783,-69.396973,-53.649899
-0.274658,-0.232544,-0.981567,-43.518063,-53.161617,-46.264645
-0.258545,-0.209839,-1.134155,-55.236813,-48.522945,-45.227047
-0.245972,-0.183960,-1.197754,-66.894531,-54.931637,-43.945309
-0.235840,-0.270874,-1.127563,-65.124512,-69.824219,-48.645016
-0.224365,-0.345825,-1.064697,-53.161617,-80.200195,-45.227047
-0.189697,-0.437866,-0.924561,-48.095699,-81.726067,-38.330078
-0.148682,-0.418579,-0.816528,-47.729488,-77.026367,-20.202635
-0.116821,-0.393433,-0.862305,-54.199215,-64.514160,-8.544922
-0.098389,-0.388062,-0.921509,-56.213375,-57.739254,-1.159668
-0.058716,-0.347290,-0.996216,-48.828121,-64.941406,4.150391
-0.039551,-0.331055,-0.900391,-42.419430,-71.228027,5.187988
-0.041016,-0.448730,-0.683838,-33.874512,-76.416016,5.493164
-0.032227,-0.492187,-0.618896,-33.630371,-59.570309,18.798828
0.010864,-0.391846,-0.694946,-34.729004,-46.997066,28.564451
0.054932,-0.250732,-0.875977,-35.217285,-33.264160,33.386230
0.075439,-0.191406,-0.944336,-42.114254,-44.006344,13.549804
0.073242,-0.257080,-0.897949,-46.142574,-63.171383,-14.831542
0.064331,-0.550049,-0.715332,-43.395992,-59.753414,-7.751464
0.081543,-0.676880,-0.584229,-43.518063,-47.546383,13.122558
0.120483,-0.470215,-0.766846,-42.236324,-15.930175,55.908199
0.132324,-0.389160,-0.883545,-34.362793,-13.183593,62.133785
0.143555,-0.370239,-0.833008,-29.663084,-29.602049,51.696774
0.149170,-0.402466,-0.761597,-28.137205,-30.700682,47.485348
0.147583,-0.477783,-0.743408,-24.291990,-32.714844,38.818359
0.146973,-0.540894,-0.664673,-17.333984,-34.790039,43.395992
0.157104,-0.581299,-0.549316,-12.878417,-18.371582,68.054199
0.179199,-0.434204,-0.638916,-9.887695,-8.178711,79.956055
0.205688,-0.307495,-0.789429,6.469726,0.610352,88.073723
0.223633,-0.259521,-0.818604,25.634764,-7.446289,84.350578
0.237305,-0.186279,-0.786133,38.696289,-18.676758,71.044922
0.220459,-0.288940,-0.596313,41.870113,-22.644041,63.049313
0.223022,-0.381470,-0.460815,40.588375,-12.084960,65.490723
0.234741,-0.325562,-0.511841,35.400391,15.747069,86.853020
0.255005,-0.140747,-0.743286,26.184080,26.184080,86.669914
0.258301,-0.162354,-0.893555,19.958496,22.888182,79.956055
0.263672,-0.120361,-0.895020,12.268065,9.033203,76.354980
0.260376,-0.067871,-0.791138,17.700195,-4.882812,74.890137
0.254272,-0.014648,-0.551025,23.864744,-3.173828,69.519043
0.273315,-0.020264,-0.615479,35.644531,18.188477,56.457516
0.298218,-0.062134,-0.945312,42.358395,37.780762,52.978512
0.298828,-0.050537,-1.031860,39.672852,22.338865,54.382320
0.279297,-0.039673,-0.898315,35.095215,9.460449,51.086422
0.234985,-0.129639,-0.680054,23.681639,4.943848,44.311520
0.219238,-0.146851,-0.640381,12.634276,29.113768,51.757809
0.243652,0.045776,-0.805298,16.174316,55.175777,65.124512
0.267456,0.291382,-1.127197,28.076170,55.114742,60.363766
0.261475,0.238403,-1.167480,53.833004,27.526854,29.113768
0.244263,-0.048340,-1.008057,54.199215,9.033203,24.658201
0.200928,-0.109619,-0.846802,46.081539,10.803222,34.912109
0.185425,-0.014526,-0.789551,31.005857,23.986814,54.931637
0.193481,0.088135,-0.804443,24.353025,40.527340,65.063477
0.212769,0.300171,-0.966919,33.325195,47.607418,49.804684
0.198364,0.188477,-1.115601,39.733887,43.151852,37.841797
0.174683,0.061401,-1.022827,37.475586,27.709959,31.127928
0.159302,0.052246,-0.956177,25.085447,24.414061,39.916992
0.137817,0.127563,-0.838989,19.226074,27.587889,45.532223
0.129395,0.276855,-0.832031,16.113281,40.832516,50.231930
0.127441,0.323975,-0.890137,21.118162,55.786129,39.367676
0.108154,0.286621,-1.144653,24.536131,60.058590,30.883787
0.085327,0.150391,-1.278687,11.535644,50.170895,18.371582
0.078979,0.090942,-1.211060,23.742674,29.602049,23.071287
0.072632,0.228149,-0.970459,32.897949,23.620604,33.203125
0.066162,0.302490,-0.890137,34.240723,31.860350,26.794432
0.048950,0.203003,-1.019287,31.982420,47.058102,17.761230
0.056152,0.221436,-1.049438,18.798828,45.043941,23.193357
0.065430,0.297119,-1.073608,13.061522,41.748043,23.132322
0.041016,0.258423,-0.962036,9.033203,31.249998,16.235352
0.031006,0.279175,-0.862427,7.568359,31.921385,12.084960
0.000854,0.276978,-0.852051,11.413573,50.048824,2.624511
-0.031738,0.163086,-0.956909,16.052246,55.725094,1.831055
-0.031616,0.199951,-1.014282,26.611326,59.265133,16.479492
-0.030396,0.358521,-1.084595,-29.235838,57.434078,24.047850
-0.040283,0.458008,-1.131592,-35.522461,47.668453,-24.047850
-0.076660,0.062500,-1.151367,0.854492,38.757324,-27.282713
-0.083618,0.295044,-0.809448,29.113768,20.935057,-1.586914
-0.096069,0.301636,-0.848389,50.964352,48.461910,-8.728027
-0.111938,0.245728,-1.056641,37.658691,51.879879,-4.577637
-0.105591,0.369385,-1.125854,22.033689,51.513668,-3.112793
-0.122925,0.362549,-1.149048,-2.929687,41.687008,-15.991210
-0.134033,0.282959,-1.049316,-10.314940,28.198240,-28.320311
-0.096558,-0.321289,-0.937622,-33.996582,-65.490723,-12.084960
-0.067261,-0.270996,-0.952881,-40.100098,-61.706539,-2.563476
-0.055298,-0.244507,-0.935913,-43.457027,-60.974117,-0.732422
-0.043701,-0.300049,-0.950439,-34.301758,-59.082027,-1.586914
-0.013428,-0.339111,-0.949951,-30.395506,-59.875484,2.075195
0.022217,-0.327515,-0.872925,-30.517576,-61.279293,7.934570
0.038696,-0.348267,-0.829346,-37.719727,-57.739254,11.535644
0.055420,-0.299561,-0.843018,-40.954586,-53.405758,15.319823
0.064575,-0.262695,-0.962524,-38.513184,-47.058102,14.709472
0.074829,-0.312012,-1.001709,-26.306150,-51.513668,9.643555
0.093994,-0.369019,-0.895264,-20.629881,-58.715816,17.883301
0.108887,-0.328003,-0.732666,-22.705076,-55.725094,20.629881
0.125488,-0.397949,-0.807739,-34.545898,-40.466305,18.432617
0.134277,-0.423340,-0.832397,-46.691891,-35.705566,24.902342
0.151733,-0.379761,-0.781250,-49.926754,-35.888672,30.151365
0.171997,-0.341553,-0.810303,-46.020504,-32.897949,32.897949
0.181152,-0.376221,-0.843140,-32.226562,-34.606934,30.456541
0.198120,-0.429810,-0.808594,-19.104004,-39.123535,41.687008
0.208862,-0.378052,-0.685059,-15.441894,-38.940430,47.119137
0.212769,-0.393188,-0.639160,-14.587401,-30.944822,47.424313
0.214355,-0.418579,-0.652710,-11.230468,-19.348145,48.034664
0.235107,-0.397705,-0.754761,-1.281738,-11.535644,53.405758
0.257690,-0.383667,-0.843994,4.943848,-12.329101,55.969234
0.272217,-0.324829,-0.797241,16.479492,-21.179197,63.781734
0.272705,-0.311523,-0.736328,25.878904,-29.785154,62.561031
0.275635,-0.358643,-0.568970,26.000975,-25.451658,66.223145
0.289917,-0.254639,-0.509766,24.047850,-17.089844,70.983887
0.311646,-0.154663,-0.636230,22.705076,2.258301,68.542480
0.322388,-0.154785,-0.768188,26.062010,13.427733,58.471676
0.327393,-0.176025,-0.961914,26.000975,7.629394,53.222652
0.319824,-0.261108,-0.738647,21.484373,-20.141600,43.640133
0.319702,-0.306274,-0.600098,19.836426,-17.333984,53.833004
0.328003,-0.220093,-0.593384,16.906738,-3.967285,62.988277
0.337891,-0.051392,-0.723145,11.291503,12.207030,65.124512
0.347656,-0.011719,-0.764160,19.775391,13.000487,50.170895
0.364502,-0.065186,-0.922729,31.127928,7.446289,35.461426
0.354736,-0.156982,-0.944824,32.287598,-2.929687,31.677244
0.318726,-0.227173,-0.745728,30.212400,-22.155760,29.479979
0.304810,-0.315552,-0.585571,28.686522,-13.549804,46.447750
0.315308,-0.229248,-0.501831,27.160643,6.713867,67.749023
0.328003,0.108154,-0.909790,26.367186,45.166012,91.796867
0.330444,0.135132,-1.034302,33.081055,32.409668,69.396973
0.329468,0.013672,-0.958130,37.109375,9.826660,54.321285
0.310303,0.052734,-0.806396,34.301758,6.530761,52.429195
0.293823,0.052734,-0.749634,26.367186,9.826660,41.687008
0.280151,-0.132690,-0.624878,19.775391,32.287598,55.053707
0.289917,0.040894,-0.850342,15.014647,48.034664,70.556641
0.293701,0.226318,-1.098267,17.028809,52.490231,75.317383
0.290527,0.205566,-1.111450,31.921385,29.357908,58.349606
0.266724,0.114502,-0.972900,34.301758,13.183593,50.781246
0.241455,0.102173,-0.762817,29.785154,13.488769,51.330563
0.227905,0.198242,-0.747070,17.211914,29.052732,51.452633
0.226440,0.196045,-0.842407,10.559081,49.255367,45.715328
0.223633,0.189453,-1.134033,12.207030,53.283688,47.485348
0.225952,0.250122,-1.216309,23.010252,38.513184,54.443356
0.230713,0.287964,-1.133179,32.531738,13.549804,49.682613
0.217773,0.245850,-0.882935,34.179687,8.911133,43.334957
0.191895,0.129517,-0.787964,27.038572,20.446775,36.804199
0.196289,0.166138,-0.826172,11.535644,41.137691,46.813961
0.206421,0.316528,-1.073242,10.620116,44.921871,43.395992
0.205078,0.286255,-1.122559,14.221190,34.790039,38.085937
0.189453,0.247925,-0.906006,20.385740,17.089844,35.278320
0.179687,0.251465,-0.845459,22.644041,23.742674,36.315918
0.156860,0.263428,-0.896362,20.202635,30.883787,35.522461
0.154419,0.312012,-0.993286,9.582520,38.452148,35.339355
0.157959,0.385986,-0.936035,1.281738,34.484863,32.287598
0.152588,0.374634,-0.885620,-7.995605,36.560059,21.728514
0.117798,0.314941,-0.887085,-13.793944,42.541500,16.540527
0.090698,0.251099,-1.097168,6.591796,54.565426,15.441894
0.092041,0.315063,-1.161743,25.512693,45.410152,23.010252
0.099243,0.399048,-1.201660,26.977537,25.817869,18.249512
0.085205,0.407593,-0.996948,18.310547,16.174316,14.160155
0.073608,0.335571,-0.800781,-26.245115,17.822266,-2.319336
0.071411,0.209473,-0.849121,-11.291503,41.259762,-4.943848
0.068481,0.284180,-1.009033,-1.464844,42.175289,7.202148
0.048340,0.353882,-1.031372,3.845215,41.625973,3.479004
0.025269,0.329712,-1.076416,9.033203,40.283199,-0.793457
0.020752,0.371582,-1.085693,6.469726,33.203125,0.549316
0.017090,0.393799,-0.994629,5.310058,27.160643,-3.540039
0.011963,0.343994,-0.840088,0.061035,25.451658,-12.268065
0.000488,0.321045,-0.852905,-4.882812,42.175289,-16.662598
-0.033691,0.273926,-0.969238,-11.108397,53.222652,-19.409180
-0.046143,0.276245,-1.112061,-14.587401,55.908199,-17.395020
-0.034790,0.390503,-1.234253,-14.770507,51.269527,-10.742187
-0.029541,0.441162,-1.241455,0.244141,29.296873,-19.592285
-0.035889,0.390381,-1.030273,11.779784,12.023925,-38.452148
-0.057251,0.200439,-0.819946,11.291503,15.441894,-41.992184
-0.077393,0.204712,-0.917725,1.159668,37.597656,-34.790039
-0.079102,0.245239,-1.017578,-14.221190,48.950191,-29.235838
-0.079346,0.257202,-1.119141,-26.123045,42.846676,-24.841307
-0.085449,0.281738,-1.078247,-25.207518,37.353516,-20.751951
-0.094849,0.324463,-1.007446,-10.742187,26.550291,-21.545408
-0.114258,0.322266,-0.858398,-1.159668,32.775879,-32.043457
-0.140381,0.306396,-0.907104,-2.868652,40.039062,-38.391113
-0.164551,0.174561,-0.997803,-12.817382,47.851559,-51.513668
-0.148315,0.213623,-1.172485,-22.277830,50.354000,-45.654293
-0.145996,0.230103,-1.234863,-21.972654,36.071777,-41.503902
-0.161133,0.166870,-1.062622,-19.531250,24.047850,-38.818359
-0.185791,0.194946,-0.831909,-17.028809,18.432617,-28.747557
-0.214966,0.178345,-0.891968,-19.104004,34.667969,-32.714844
-0.214722,0.153687,-0.970825,-27.038572,44.006344,-40.039062
-0.197876,0.207153,-1.165283,-32.653809,43.273922,-41.015621
-0.207886,0.197876,-1.165649,-43.823238,25.695799,-50.659176
-0.237061,0.083984,-0.889526,-48.461910,6.713867,-56.213375
-0.250366,0.062500,-0.805786,-47.363277,20.019531,-47.119137
-0.253296,0.033691,-0.898315,-44.006344,33.569336,-41.076656
-0.229980,0.160645,-1.086304,-45.837399,45.715328,-30.090330
-0.231079,0.217163,-1.164185,-57.556149,33.264160,-44.189449
-0.254028,0.099976,-1.125488,-72.692871,14.404296,-68.298340
-0.281494,-0.066528,-1.046387,-64.880371,10.803222,-71.044922
-0.278564,0.005493,-1.073364,-46.447750,7.507324,-61.340328
-0.280518,0.054565,-1.102783,-48.645016,7.141113,-61.523434
-0.300903,-0.066650,-1.079224,-53.100582,5.249023,-63.842770
-0.315430,-0.146240,-1.088989,-49.865719,9.399414,-56.823727
-0.315308,-0.088867,-1.281128,-34.301758,15.441894,-41.687008
-0.307251,-0.021118,-1.311523,-31.005857,-6.347656,-40.832516
-0.305908,0.018677,-1.180542,-41.931149,-29.235838,-57.861324
-0.322388,-0.128296,-1.071899,-48.522945,-31.127928,-62.988277
-0.329956,-0.165283,-1.113403,-55.664059,-25.817869,-57.434078
-0.327881,-0.176636,-1.140259,-48.400875,-26.184080,-48.461910
-0.318237,-0.171143,-1.154297,-39.550781,-32.104492,-38.024902
-0.307739,-0.140259,-1.183838,-37.231445,-34.606934,-35.705566
-0.303955,-0.108154,-1.210083,-25.756834,-43.701168,-36.743164
-0.282227,-0.184570,-1.063599,-15.808105,-57.373043,-42.053219
-0.266113,-0.214355,-1.003906,-26.672361,-55.603024,-38.452148
-0.245728,-0.235596,-1.040649,-40.344234,-50.354000,-36.132812
-0.235474,-0.320923,-1.121582,-62.622066,-48.461910,-32.653809
-0.213013,-0.300415,-1.013550,-67.321777,-58.837887,-19.775391
0.262451,0.041138,-0.767944,41.442867,32.226562,47.546383
0.237427,-0.017700,-0.993774,27.893064,38.452148,38.879395
0.223633,0.024414,-0.909058,15.747069,26.672361,47.241207
0.218018,0.088867,-0.864014,19.592285,23.986814,48.706051
0.198975,0.081299,-0.786499,25.878904,23.620604,42.663570
0.176147,0.069580,-0.709839,27.099607,28.869627,31.799314
0.146240,-0.023560,-0.927979,18.859863,46.813961,23.742674
0.136475,-0.013794,-1.074829,20.385740,50.903316,37.170410
0.130737,0.108032,-1.197021,24.963377,43.762203,43.640133
0.124146,0.165161,-1.027344,31.433104,24.597166,45.959469
0.120972,0.162231,-0.929687,34.729004,21.484373,42.114254
0.103760,0.133301,-0.857666,35.156250,25.756834,40.893551
0.099976,0.185181,-0.905396,31.005857,37.109375,43.640133
0.099731,0.226685,-0.994385,27.343748,44.433590,41.870113
0.093994,0.235718,-1.066284,26.245115,40.893551,38.391113
0.089233,0.258423,-1.017090,23.803709,32.836914,34.545898
0.080322,0.268066,-1.014282,18.676758,30.761717,28.930662
0.053955,0.196411,-0.934082,15.258788,31.005857,26.672361
0.039063,0.212402,-0.930298,13.916015,35.400391,28.625486
0.037964,0.328003,-1.061157,9.765625,42.663570,27.282713
0.033325,0.348511,-1.097168,14.038085,36.376953,15.441894
0.018677,0.284058,-1.060425,18.371582,30.700682,10.009766
0.015625,0.267822,-0.969849,20.446775,23.864744,4.577637
0.012451,0.151489,-0.882324,18.127441,25.695799,1.281738
0.009277,0.175659,-0.891602,14.526366,38.269043,16.662598
-0.005615,0.333252,-1.007446,13.000487,41.748043,18.310547
-0.021606,0.299561,-1.034058,1.892090,39.794922,5.432128
-0.027344,0.248901,-1.069824,16.601562,39.306641,-0.549316
-0.040649,0.257202,-1.103882,28.259275,27.282713,2.624511
-0.062866,0.261230,-0.966797,29.296873,24.475096,2.746582
-0.073486,0.255127,-0.907349,22.155760,29.174803,5.493164
-0.070923,0.324829,-0.938110,12.939452,40.222164,5.554199
-0.067017,0.387573,-1.047485,9.826660,40.893551,0.915527
-0.085937,0.321899,-1.085205,11.901855,35.827637,-10.559081
-0.097412,0.265991,-1.092285,12.573241,30.517576,-13.000487
-0.114746,0.240112,-1.046265,11.169433,27.709959,-9.765625
-0.124634,0.294800,-0.935059,10.925292,25.207518,-1.953125
-0.133789,0.395142,-0.949707,13.305663,33.691406,2.929687
-0.142090,0.454224,-0.983765,12.573241,35.644531,-6.896972
-0.158447,0.401001,-1.009888,12.207030,34.057617,-16.601562
-0.167236,0.265747,-1.047852,14.099120,32.043457,-24.902342
-0.168945,0.239868,-1.019653,11.779784,26.977537,-15.502929
-0.167114,0.252319,-0.921021,10.864257,31.616209,2.319336
-0.167236,0.405518,-0.912720,11.047362,37.231445,6.347656
-0.173462,0.546753,-0.940186,8.544922,38.818359,-1.098633
-0.206299,0.489746,-0.995728,2.990722,40.161129,-26.428221
-0.224487,0.390259,-1.030273,5.798339,39.184570,-42.236324
-0.239746,0.188843,-1.094971,7.873535,38.330078,-38.269043
-0.213501,0.297119,-1.072510,9.460449,32.043457,-12.573241
-0.203735,0.412476,-1.027954,8.422852,24.108885,-8.056641
-0.212646,0.480469,-0.927002,2.929687,25.573729,-25.451658
-0.235474,0.481934,-0.986816,-2.441406,30.517576,-35.583496
-0.258301,0.304565,-1.080933,-6.896972,32.165527,-53.161617
-0.256592,0.229248,-1.050049,-6.530761,26.916502,-43.334957
-0.219360,0.360474,-1.104370,-10.864257,27.282713,-29.174803
-0.244751,0.318726,-1.064575,-23.315428,15.502929,-40.649410
-0.256470,0.242310,-0.869507,-29.602049,9.155273,-40.405270
-0.251587,0.348755,-0.927002,-31.799314,26.184080,-32.104492
-0.260376,0.333130,-1.081177,-28.808592,19.836426,-48.767086
-0.261841,0.261475,-1.004639,-31.311033,14.648437,-47.607418
-0.269531,0.332275,-1.117188,-38.452148,16.479492,-43.945309
-0.281616,0.255005,-1.144409,-42.907711,5.493164,-53.771969
-0.278198,0.108398,-0.958618,-35.095215,-1.525879,-38.024902
-0.251953,0.215942,-0.883667,-35.522461,5.554199,-31.188963
-0.244995,0.151978,-1.000366,-40.649410,18.920898,-34.240723
-0.240234,0.170410,-1.078979,-43.945309,14.587401,-35.766602
-0.248901,0.261353,-1.113403,-57.617184,-4.577637,-50.231930
-0.269531,0.099365,-1.037476,-58.532711,-10.498046,-56.945797
-0.277344,0.113159,-0.961548,-64.819336,-14.465331,-55.175777
-0.273804,0.029785,-0.955688,-43.579098,-5.249023,-52.124020
-0.259888,0.023682,-0.995117,-20.629881,1.220703,-39.428711
-0.254395,0.132568,-1.064087,-24.658201,0.183105,-39.184570
-0.268066,0.116821,-1.093750,-39.978027,-6.713867,-48.950191
-0.259399,0.069580,-1.185913,-35.644531,-11.962890,-51.696774
-0.263306,0.041870,-1.151489,-36.132812,-28.991697,-54.016109
-0.258057,-0.030029,-0.937256,-40.527340,-26.672361,-46.997066
-0.243408,-0.010132,-1.075073,-43.579098,-16.906738,-42.541500
-0.234253,-0.028198,-1.252686,-47.973629,-16.174316,-42.236324
-0.231323,-0.021606,-1.211792,-45.593258,-36.010742,-42.724606
-0.226562,-0.018066,-1.132813,-50.476070,-41.015621,-46.386715
-0.222778,-0.147339,-1.159790,-49.011227,-42.175289,-45.654293
-0.208862,-0.144409,-1.109009,-44.189449,-49.255367,-34.301758
-0.196411,-0.138062,-1.051758,-47.119137,-50.415035,-25.085447
-0.165161,-0.110596,-1.072266,-52.978512,-44.433590,-20.507811
-0.136353,-0.122803,-1.107666,-58.288570,-46.142574,-20.080564
-0.118286,-0.119629,-1.023438,-70.800781,-52.612301,-18.249512
-0.110352,-0.130737,-1.012573,-67.626953,-53.161617,-17.822266
-0.085815,-0.219116,-1.008301,-56.213375,-52.429195,-12.390136
-0.058716,-0.271484,-0.957764,-55.419918,-52.307125,-7.873535
-0.040771,-0.242432,-0.909180,-61.462399,-49.865719,-0.366211
-0.035767,-0.243286,-0.947266,-62.011715,-44.433590,0.305176
-0.019287,-0.262573,-0.988770,-54.321285,-45.410152,6.530761
-0.001099,-0.227173,-0.937500,-46.997066,-46.508785,10.498046
0.015991,-0.227417,-0.849487,-40.222164,-45.532223,11.230468
0.021729,-0.243774,-0.883301,-44.494625,-39.550781,6.164550
0.030273,-0.288452,-0.987183,-46.874996,-40.222164,5.249023
0.032471,-0.347778,-0.932495,-48.278805,-47.790524,10.192870
0.040649,-0.361572,-0.882935,-44.921871,-46.630856,27.709959
0.062866,-0.251465,-0.880127,-41.931149,-39.916992,38.330078
0.076782,-0.220825,-0.856201,-39.489746,-38.757324,36.010742
0.099731,-0.266479,-0.884155,-30.944822,-33.325195,32.409668
0.114990,-0.257324,-0.890015,-25.146482,-33.203125,32.409668
0.144531,-0.229980,-0.872925,-24.353025,-36.193848,26.123045
0.156372,-0.270020,-0.882568,-26.916502,-39.916992,18.432617
0.150879,-0.403564,-0.765381,-29.785154,-37.902832,24.291990
0.167969,-0.388794,-0.751587,-29.907225,-30.212400,32.470703
0.190552,-0.291504,-0.903076,-24.108885,-18.554687,42.175289
0.199341,-0.294800,-0.927246,-11.291503,-24.230955,39.611816
0.218628,-0.306519,-0.950806,-0.915527,-34.423828,39.245605
0.226562,-0.234375,-0.880615,-1.342773,-47.546383,26.855467
0.220337,-0.404907,-0.577759,-2.014160,-48.522945,26.367186
0.243286,-0.240723,-0.598022,-5.798339,-20.690916,46.630856
0.253174,-0.182007,-0.761841,-5.432128,1.220703,43.212887
0.273071,-0.190674,-0.894531,-2.929687,-2.502441,37.719727
0.282227,-0.213867,-0.865479,5.920410,-13.977050,31.677244
0.273193,-0.229004,-0.756226,10.253905,-23.254393,26.367186
0.274292,-0.273438,-0.716309,15.197753,-20.080564,19.775391
0.288818,-0.222534,-0.760010,10.131835,-12.878417,19.714355
0.293091,-0.224243,-0.804199,8.972168,-11.840819,16.174316
0.288452,-0.375366,-0.851440,13.610839,-8.056641,18.493652
0.282349,-0.409912,-0.858398,19.531250,-5.187988,44.982906
0.295410,-0.251831,-0.862305,23.376463,-4.821777,57.983395
0.311157,-0.169556,-0.769043,30.151365,-8.972168,58.776852
0.314819,-0.150391,-0.610840,32.775879,-7.873535,52.612301
0.311523,-0.138428,-0.604370,32.409668,10.498046,48.583981
0.314575,-0.151001,-0.849609,34.729004,23.559568,51.330563
0.324829,-0.071655,-0.950073,36.743164,16.906738,54.748531
0.324097,-0.054932,-0.791382,41.015621,2.136230,53.527828
-0.147949,0.337280,-0.877563,9.948730,56.274410,-9.094238
-0.169800,0.398071,-1.076538,15.258788,59.814449,-13.732909
-0.179687,0.337769,-1.203003,17.150879,52.429195,-16.967773
-0.191162,0.334351,-1.015381,13.427733,29.907225,-15.441894
-0.198730,0.358276,-0.881836,7.507324,26.550291,-12.695312
-0.212402,0.395142,-0.813232,6.225585,34.912109,-13.244628
-0.240845,0.402588,-0.933594,8.972168,51.208492,-14.892577
-0.258423,0.468506,-1.003540,9.521484,55.114742,-18.127441
-0.275024,0.413086,-1.177246,14.465331,47.668453,-32.287598
-0.269287,0.348145,-1.125488,12.756347,31.066893,-34.484863
-0.258301,0.313110,-0.975830,5.126953,28.076170,-29.052732
-0.266479,0.362915,-0.880737,0.549316,33.325195,-30.456541
-0.291870,0.309814,-0.860474,-0.610352,38.452148,-31.860350
-0.307129,0.320557,-0.893188,-4.333496,48.522945,-25.451658
-0.301758,0.452515,-1.130127,1.159668,56.091305,-20.141600
-0.304565,0.460205,-1.173340,4.333496,36.010742,-34.790039
-0.315674,0.376953,-1.009521,0.915527,24.230955,-42.419430
-0.335693,0.328613,-0.839722,-8.483887,17.272949,-48.156734
-0.342651,0.377441,-0.844482,-18.127441,31.311033,-44.067379
-0.336182,0.436646,-0.908813,-30.273436,46.569820,-45.166012
-0.321533,0.415283,-1.150757,-35.217285,48.339840,-51.574703
-0.326416,0.289917,-1.171021,-37.109375,28.442381,-58.654781
-0.317017,0.266968,-0.991333,-42.907711,8.300781,-54.626461
-0.309082,0.266724,-0.964844,-50.903316,8.422852,-53.039547
-0.311401,0.307739,-0.904663,-57.373043,8.483887,-52.368160
-0.321533,0.411011,-0.866699,-85.571281,16.662598,-56.518551
-0.352051,0.140625,-1.185425,-93.566887,36.193848,-77.941895
-0.350952,0.053223,-1.273560,-66.040039,14.160155,-64.331055
-0.336304,0.150513,-1.187744,-53.955074,-0.488281,-55.480953
-0.341309,0.166748,-0.960937,-42.480465,-18.188477,-55.480953
-0.342529,0.116455,-0.928223,-46.203609,-9.704590,-57.617184
-0.342529,0.103027,-1.019897,-50.048824,0.122070,-53.283688
-0.334717,0.112183,-1.109863,-55.847164,-6.835937,-50.964352
-0.317017,0.136230,-1.191895,-54.443356,-9.887695,-51.513668
-0.323242,0.089478,-1.122070,-52.795406,-24.536131,-56.274410
-0.327759,0.042603,-0.986694,-65.246582,-35.339355,-56.884762
-0.314331,-0.007690,-0.921509,-68.298340,-19.409180,-47.668453
-0.297241,0.004395,-1.085327,-61.523434,-16.601562,-41.198727
-0.290527,0.033936,-1.089233,-58.654781,-22.766111,-39.489746
-0.289429,0.038208,-1.047974,-52.673336,-31.433104,-39.978027
-0.287598,0.013916,-1.055542,-48.217770,-33.264160,-39.062500
-0.278809,-0.038330,-1.028931,-47.912594,-35.339355,-34.423828
-0.254150,-0.059326,-1.015137,-47.424313,-34.790039,-31.005857
-0.228394,-0.016113,-1.049072,-48.461910,-33.447266,-26.123045
-0.225586,-0.016357,-1.046631,-57.189938,-35.888672,-30.273436
-0.221191,-0.083496,-1.052612,-56.640621,-38.574219,-28.869627
-0.208008,-0.083496,-1.017212,-57.312008,-40.161129,-26.062010
-0.195801,-0.133423,-0.982422,-60.180660,-40.222164,-23.925779
-0.175903,-0.151489,-1.135986,-59.509274,-35.644531,-18.127441
-0.174194,-0.144043,-1.058472,-58.654781,-49.011227,-13.671874
-0.167603,-0.166870,-0.977661,-53.710934,-54.870602,-11.474608
-0.147095,-0.188965,-0.917358,-51.452633,-51.818844,-9.277344
-0.117676,-0.213989,-0.904297,-53.710934,-43.579098,-5.432128
-0.099365,-0.230957,-1.072876,-58.837887,-34.729004,-1.281738
-0.102295,-0.283081,-1.131104,-58.532711,-44.799801,-0.061035
-0.096313,-0.319458,-0.999878,-53.833004,-55.419918,9.948730
-0.072021,-0.282104,-0.930542,-48.278805,-53.283688,12.817382
-0.059692,-0.293701,-0.916504,-36.804199,-50.109859,13.427733
-0.032104,-0.346069,-0.895264,-36.560059,-43.518063,14.892577
-0.021851,-0.374023,-0.978516,-38.330078,-35.156250,18.737793
-0.000244,-0.388550,-1.102051,-37.292480,-47.363277,27.770994
0.022095,-0.324097,-0.906128,-37.536621,-56.152340,31.372068
0.037109,-0.354858,-0.756348,-37.414551,-55.664059,31.494139
0.051147,-0.375366,-0.747070,-36.560059,-42.053219,36.193848
0.086426,-0.289673,-0.815674,-38.330078,-30.517576,40.283199
0.105103,-0.299438,-0.956909,-36.987305,-29.968260,38.391113
0.115356,-0.281860,-0.940430,-30.517576,-40.100098,36.987305
0.120972,-0.292114,-0.894775,-22.338865,-46.447750,33.325195
0.137695,-0.387817,-0.805908,-19.226074,-43.457027,39.306641
0.152222,-0.367554,-0.684570,-21.484373,-39.916992,42.968746
0.173340,-0.357422,-0.731445,-25.817869,-25.573729,45.349117
0.187622,-0.308838,-0.861450,-22.888182,-17.150879,43.579098
0.206177,-0.296875,-0.991089,-9.094238,-34.240723,38.635254
0.211304,-0.326172,-0.804810,-0.610352,-40.222164,41.015621
0.219360,-0.329346,-0.685303,13.488769,-36.804199,45.898434
0.226562,-0.363525,-0.648560,18.249512,-25.634764,47.241207
0.245117,-0.389282,-0.706909,16.540527,-9.948730,55.664059
0.270264,-0.271729,-0.875854,14.648437,-6.652832,59.448238
0.290161,-0.184814,-0.870728,15.014647,-15.563964,57.434078
0.298706,-0.176758,-0.801758,20.202635,-26.306150,51.025387
0.288330,-0.221313,-0.642334,25.451658,-23.803709,46.325680
0.284790,-0.278687,-0.536255,25.451658,-15.991210,48.522945
0.304565,-0.137085,-0.705566,21.728514,6.958007,56.579586
0.296753,-0.158691,-0.854858,21.057127,12.084960,47.973629
0.289307,-0.213135,-0.868164,21.850584,5.126953,44.067379
0.294922,-0.205078,-0.830444,22.216795,1.892090,46.752926
0.298218,-0.155029,-0.782715,23.437498,-0.915527,48.217770
0.287720,-0.179199,-0.745239,25.573729,0.610352,44.433590
0.281738,-0.190918,-0.716309,23.681639,11.779784,45.898434
0.296509,-0.143433,-0.860962,25.390623,16.235352,46.020504
0.300903,-0.098145,-0.896118,34.667969,13.977050,49.743649
0.300293,-0.079590,-0.840454,40.466305,8.483887,49.499508
0.294434,-0.118896,-0.838257,40.100098,9.399414,45.654293
0.286743,-0.107056,-0.790649,38.635254,9.460449,48.583981
0.280762,-0.026855,-0.767212,33.569336,15.319823,51.879879
0.278564,-0.005371,-0.891724,31.188963,24.230955,45.959469
0.276123,0.017700,-0.942505,27.648924,21.423338,39.916992
0.269043,-0.007324,-0.955078,28.869627,18.615723,39.367676
0.268188,0.030029,-0.869629,30.212400,16.235352,45.654293
0.267700,0.008057,-0.864380,31.555174,19.775391,43.701168
0.263428,0.029907,-0.877075,29.479979,20.080564,41.137691
0.251709,0.157837,-0.897827,23.986814,17.883301,27.343748
0.231812,0.071533,-0.917603,24.658201,18.188477,21.606443
0.229004,0.040161,-0.913940,29.357908,19.897461,30.456541
0.233521,0.082642,-0.880371,37.353516,19.897461,45.654293
0.228882,0.151978,-0.772095,38.146973,20.629881,47.424313
0.193359,0.115234,-0.726562,29.602049,30.212400,42.602535
0.186279,0.131836,-0.836548,23.681639,49.316402,41.442867
0.196655,0.265991,-1.150513,23.010252,38.574219,31.005857
0.196289,0.218018,-1.052246,23.620604,23.803709,20.507811
0.159912,0.011597,-0.818359,28.564451,13.427733,17.395020
0.140747,0.090210,-0.800781,29.724119,28.808592,41.625973
0.146606,0.197388,-0.848877,23.132322,42.053219,48.156734
0.146729,0.252930,-0.972412,18.920898,44.189449,42.663570
0.129150,0.282227,-0.986694,12.878417,40.344234,36.499023
0.103394,0.229492,-0.944580,20.690916,36.071777,30.578611
0.094849,0.185303,-0.904053,26.733397,36.621094,32.836914
0.079468,0.248535,-0.908081,24.780272,39.855957,36.804199
0.054565,0.271240,-0.947388,19.592285,43.579098,35.156250
0.042969,0.266724,-0.992432,15.502929,46.997066,31.738279
0.023926,0.275635,-1.087036,9.094238,43.090816,29.663084
0.015259,0.295166,-1.064453,7.263183,39.001465,27.465818
0.003784,0.311279,-0.973267,9.826660,33.325195,23.925779
-0.008667,0.286499,-0.930542,17.150879,35.827637,22.888182
-0.012817,0.325073,-0.931519,20.263670,41.015621,23.803709
-0.022095,0.351807,-1.017212,20.446775,43.579098,20.507811
-0.035278,0.330078,-1.079956,6.652832,42.236324,13.305663
-0.043579,0.267944,-1.076416,15.869140,36.499023,9.399414
-0.372559,0.168457,-1.084961,-33.752441,4.943848,-59.753414
-0.363892,0.102417,-1.149902,-33.691406,5.065917,-53.466793
-0.362183,0.146973,-1.196411,-33.996582,-3.540039,-45.410152
-0.365723,0.165649,-1.197632,-33.813477,-11.657714,-47.424313
-0.372314,0.115112,-1.187256,-39.672852,-22.583006,-51.940914
-0.368652,0.101685,-1.179932,-46.264645,-29.724119,-51.086422
-0.356689,0.075562,-1.144409,-47.058102,-35.522461,-47.302242
-0.330200,0.060791,-1.159912,-50.964352,-35.827637,-44.311520
-0.317017,-0.031128,-1.136841,-57.312008,-39.794922,-44.067379
-0.300171,-0.054932,-1.115723,-66.650391,-45.288082,-33.447266
-0.277222,0.013428,-1.214844,-62.377926,-47.302242,-21.301268
-0.264648,0.017822,-1.195923,-55.236813,-61.462399,-21.606443
-0.232056,-0.015503,-1.048828,-53.161617,-66.589355,-23.193357
-0.203003,-0.174072,-0.958252,-52.490231,-65.979004,-24.658201
-0.161499,-0.204956,-0.952271,-56.518551,-58.166500,-5.249023
-0.141724,-0.137085,-0.975586,-59.509274,-53.833004,13.366698
-0.115967,-0.073975,-1.009033,-59.936520,-57.434078,14.221190
-0.105103,-0.089478,-0.981812,-58.349606,-59.509274,14.465331
-0.084595,-0.161621,-0.936279,-52.612301,-61.645504,16.601562
-0.065186,-0.171143,-0.927124,-45.410152,-60.302731,25.573729
-0.030640,-0.091309,-0.860718,-45.166012,-56.945797,28.869627
-0.014038,-0.087280,-0.912598,-44.311520,-52.673336,27.954100
-0.004517,-0.106689,-0.976440,-38.513184,-49.560543,29.418943
0.002075,-0.112305,-0.966919,-33.203125,-53.283688,31.616209
0.022217,-0.123169,-0.944702,-27.832029,-54.870602,34.240723
0.056519,-0.076294,-0.910400,-26.855467,-55.236813,35.461426
0.086426,-0.043213,-0.846802,-33.447266,-54.138180,28.991697
0.094604,-0.080200,-0.855225,-39.550781,-46.447750,20.263670
0.112671,-0.107544,-0.944946,-36.987305,-43.518063,22.766111
0.130005,-0.092773,-0.892334,-25.268553,-47.241207,29.296873
0.145508,-0.177979,-0.820312,-13.977050,-48.461910,31.127928
0.154297,-0.206299,-0.832275,-12.023925,-42.785641,39.367676
0.183716,-0.187866,-0.790527,-14.099120,-39.550781,49.072262
0.216431,-0.069458,-0.799805,-14.526366,-35.827637,49.499508
0.246216,0.029541,-0.930420,-14.892577,-31.433104,36.926270
0.252808,-0.003296,-0.933350,-5.859375,-40.893551,16.052246
0.253296,-0.233276,-0.793701,4.699707,-44.311520,13.366698
0.263428,-0.332153,-0.677856,20.324705,-37.963867,32.043457
0.272217,-0.279419,-0.691528,22.338865,-23.010252,54.199215
0.282227,-0.146729,-0.770996,15.808105,-16.052246,56.152340
0.278198,-0.077148,-0.846924,13.244628,-14.709472,54.565426
0.288452,0.008545,-0.908081,15.014647,-16.845703,51.025387
0.293213,0.036987,-0.873291,19.104004,-28.259275,38.879395
0.283569,-0.070557,-0.706787,21.240232,-32.104492,29.541014
0.268066,-0.249512,-0.560059,26.428221,-26.611326,26.916502
0.285645,-0.133667,-0.687012,23.864744,-3.906250,47.485348
0.295654,-0.019287,-0.813843,16.235352,3.601074,51.635738
0.294312,0.115112,-0.870850,12.634276,-4.089355,43.457027
0.289795,0.098267,-0.750610,19.592285,-16.967773,24.841307
0.275269,0.025146,-0.687622,38.635254,-14.160155,16.357422
0.248413,-0.215088,-0.454346,43.945309,-6.774902,25.085447
0.262207,-0.008423,-0.686401,43.457027,29.846189,61.706539
0.268677,0.155151,-1.015381,39.550781,40.405270,65.124512
0.261719,0.169556,-0.947266,33.203125,16.052246,50.842281
0.226318,0.212402,-0.828613,28.320311,15.075683,29.235838
0.199829,-0.033081,-0.676392,29.357908,17.944336,24.230955
0.200317,0.005737,-0.715820,35.278320,41.076656,54.931637
0.213257,0.192871,-0.983032,32.470703,43.518063,62.194820
0.204346,0.302124,-1.019165,27.832029,36.132812,56.579586
0.195068,0.302734,-1.012817,25.268553,26.245115,42.358395
0.175537,0.307373,-0.960205,23.864744,17.944336,32.470703
0.157471,0.271362,-0.786743,25.024412,16.906738,27.099607
0.141113,0.244995,-0.804199,29.113768,30.212400,27.954100
0.137329,0.290527,-0.916260,29.235838,44.311520,33.935547
0.135498,0.350098,-1.164429,29.663084,43.273922,32.714844
0.130371,0.306274,-1.021851,26.733397,23.925779,28.991697
0.132935,0.352051,-0.818726,20.446775,20.446775,33.752441
0.127930,0.398193,-0.822510,16.784668,32.836914,30.090330
0.105835,0.394409,-0.824463,14.831542,36.621094,24.658201
0.084106,0.395996,-0.965576,15.014647,45.104977,8.117676
0.061523,0.283569,-1.072021,18.310547,37.841797,5.920410
0.052368,0.221436,-1.064697,19.226074,33.447266,14.526366
0.047607,0.386475,-0.858154,14.648437,23.742674,27.526854
0.043091,0.374268,-0.783203,10.986327,33.569336,18.188477
0.030396,0.327148,-0.927856,8.300781,46.874996,16.479492
0.018066,0.347290,-1.027100,8.850098,44.189449,15.380858
-0.001099,0.310059,-0.951172,10.620116,35.949707,11.413573
-0.012207,0.259766,-0.948364,12.634276,38.940430,12.634276
-0.014282,0.306641,-0.962280,0.793457,40.771481,17.089844
-0.031250,0.316284,-0.900513,5.249023,42.114254,14.282226
-0.055176,0.372681,-0.945435,23.193357,46.813961,15.441894
-0.060547,0.403320,-0.988037,33.264160,48.950191,11.169433
-0.077148,0.375122,-1.058105,26.672361,40.344234,5.920410
-0.095459,0.336304,-0.927002,18.676758,37.109375,6.469726
-0.117188,0.361572,-0.959351,7.080078,44.128414,9.765625
-0.128662,0.375244,-1.013062,5.554199,47.973629,9.155273
-0.137695,0.393311,-1.054810,12.878417,45.104977,8.728027
-0.135010,0.455200,-1.127197,18.981934,42.663570,8.178711
-0.142578,0.465454,-1.124023,24.780272,29.907225,2.563476
-0.171143,0.402954,-0.952148,15.624999,22.827147,0.244141
-0.182251,0.440796,-0.890991,11.230468,27.832029,1.403808
-0.179321,0.440430,-0.982178,8.178711,37.170410,-0.671387
-0.182373,0.426758,-0.954956,7.263183,33.996582,-3.112793
-0.190796,0.459351,-0.930908,7.568359,35.949707,-3.845215
-0.206299,0.467529,-1.112549,12.878417,42.236324,-9.094238
-0.212036,0.441528,-1.131592,17.822266,27.465818,-12.390136
-0.218994,0.374756,-0.923706,9.887695,19.958496,-4.211426
-0.224487,0.510620,-0.849854,4.760742,25.329588,-1.525879
-0.239258,0.506958,-0.887817,2.014160,32.592773,-15.624999
-0.247314,0.447021,-0.893799,4.577637,36.621094,-24.536131
-0.250610,0.452759,-1.025024,5.126953,39.672852,-22.216795
-0.252075,0.401733,-1.145386,6.286621,33.447266,-20.507811
-0.254639,0.303345,-1.038940,6.469726,14.831542,-5.310058
-0.255981,0.478271,-0.790527,6.225585,14.282226,7.324218
-0.271606,0.570312,-0.784790,7.568359,25.390623,-2.990722
-0.291382,0.424561,-0.920044,7.995605,36.315918,-18.188477
-0.291748,0.440552,-0.952515,6.469726,33.996582,-13.000487
-0.272827,0.504639,-1.012085,4.760742,31.066893,-13.916015
-0.268311,0.459839,-0.915771,-1.464844,18.554687,-17.578125
-0.275269,0.481567,-0.773193,-5.920410,13.610839,-20.019531
-0.298950,0.447998,-0.734131,-6.408691,22.521971,-23.986814
-0.310791,0.423950,-0.963135,-5.798339,39.428711,-21.789549
-0.312988,0.482178,-1.023926,-6.591796,32.348633,-19.470215
-0.318970,0.527222,-1.051514,-10.986327,20.141600,-32.958984
-0.318481,0.404907,-1.034912,-14.282226,13.305663,-37.719727
-0.315674,0.296631,-0.820435,-21.423338,1.403808,-36.682129
-0.294189,0.430420,-0.797852,-19.470215,12.390136,-22.033689
-0.282471,0.532593,-0.844360,-23.437498,21.911619,-27.465818
-0.289185,0.480225,-0.964233,-28.808592,22.583006,-39.855957
-0.302490,0.232544,-0.962158,-30.944822,14.709472,-48.278805
-0.281006,0.297119,-0.918091,-29.663084,11.596679,-27.832029
-0.278442,0.352783,-0.934448,-36.926270,12.145995,-26.611326
-0.305420,0.393433,-0.877197,-45.166012,10.498046,-34.606934
-0.321533,0.377197,-0.907715,-47.302242,15.747069,-35.705566
-0.313721,0.386230,-1.106689,-53.283688,22.949217,-39.245605
-0.305664,0.360229,-1.130737,-57.800289,6.286621,-49.560543
-0.306274,0.309082,-1.014526,-65.795898,-3.356933,-55.419918
-0.310669,0.156006,-1.048950,-56.640621,-2.319336,-60.974117
0.226685,0.200806,-0.857300,32.958984,28.930662,33.630371
0.216187,0.142212,-1.002563,26.489256,20.202635,25.634764
0.192627,0.114502,-0.925049,23.559568,15.197753,28.503416
0.179932,0.171143,-0.898804,30.944822,16.418457,43.579098
0.180664,0.254272,-0.858521,39.184570,15.686034,48.706051
0.182373,0.261963,-0.729858,40.649410,17.883301,43.762203
0.178955,0.250610,-0.771240,31.799314,32.043457,34.912109
0.142578,0.209229,-1.046875,16.967773,44.128414,24.902342
0.120361,0.096802,-1.084961,15.563964,32.897949,28.686522
0.101440,0.214600,-0.995972,22.583006,25.878904,48.156734
0.107910,0.356812,-0.945190,29.541014,24.536131,44.494625
0.110840,0.296875,-0.828735,39.184570,22.216795,33.569336
0.105469,0.293823,-0.812988,34.729004,31.066893,31.249998
0.095459,0.332886,-0.912109,19.775391,37.841797,25.512693
0.069580,0.337402,-0.960205,14.343261,34.423828,18.371582
0.047241,0.180664,-0.864868,14.770507,30.456541,17.089844
0.048096,0.258911,-0.902100,21.789549,39.489746,37.292480
0.047119,0.387085,-0.944214,25.329588,38.452148,36.010742
0.033569,0.340332,-0.896362,28.137205,35.583496,28.381346
0.010254,0.387573,-0.952759,22.094725,39.367676,26.550291
-0.001709,0.371338,-0.950562,12.817382,37.780762,18.188477
-0.023437,0.355347,-0.932373,10.314940,37.780762,15.686034
-0.035522,0.321899,-0.942505,10.681151,39.550781,15.686034
-0.043213,0.345337,-0.967651,14.770507,42.114254,24.169920
-0.051392,0.425659,-1.039185,14.404296,38.513184,22.460936
-0.074219,0.409424,-1.003052,8.422852,33.996582,15.930175
-0.084229,0.337280,-0.947021,25.207518,34.729004,12.145995
-0.095947,0.378906,-0.975464,39.123535,37.475586,19.470215
-0.104736,0.464111,-0.986206,40.771481,36.987305,19.042969
-0.122559,0.507080,-0.905640,30.761717,33.264160,14.587401
-0.135254,0.507935,-0.903809,17.883301,38.513184,7.202148
-0.151855,0.479858,-0.979858,13.061522,41.015621,4.333496
-0.158813,0.484131,-1.004272,6.225585,40.222164,1.220703
-0.166016,0.441650,-1.018066,9.216309,37.231445,-1.586914
-0.172241,0.441162,-0.977295,11.474608,31.249998,4.211426
-0.181274,0.532471,-0.857178,13.244628,30.578611,4.577637
-0.209229,0.584229,-0.866821,14.038085,38.757324,-0.732422
-0.223755,0.575317,-0.939087,12.207030,45.715328,-14.587401
-0.230835,0.478027,-1.034302,11.657714,39.611816,-20.446775
-0.211548,0.431274,-1.010498,9.826660,35.034180,-18.432617
-0.212769,0.412598,-0.830688,2.868652,27.526854,-13.793944
-0.227295,0.440430,-0.773804,3.173828,36.193848,-5.920410
-0.268066,0.581177,-0.861572,8.361816,47.851559,-12.817382
-0.293701,0.566895,-0.988403,6.713867,48.034664,-21.179197
-0.281006,0.514160,-1.058228,2.563476,42.053219,-27.893064
-0.268433,0.486938,-1.030029,8.483887,27.404783,-24.047850
-0.262085,0.504395,-0.848877,14.709472,20.751951,-23.132322
-0.285034,0.478271,-0.714966,14.770507,25.512693,-24.841307
-0.309692,0.458862,-0.765137,7.629394,42.602535,-24.291990
-0.312134,0.523804,-0.887817,-3.967285,57.373043,-19.958496
-0.311890,0.561279,-1.114380,-6.835937,44.250484,-29.113768
-0.296021,0.472412,-1.015503,-5.432128,32.897949,-31.921385
-0.292358,0.395386,-0.856079,-1.464844,22.949217,-32.836914
-0.324707,0.405640,-0.899414,-4.455566,29.846189,-29.174803
-0.334229,0.468140,-0.998535,-17.517090,35.217285,-23.376463
-0.331787,0.563965,-1.099609,-33.691406,24.536131,-28.442381
-0.317505,0.491577,-1.000000,-36.926270,18.493652,-34.057617
-0.315186,0.370605,-0.933716,-28.564451,15.686034,-35.156250
-0.317261,0.430298,-0.920166,-27.587889,15.319823,-35.278320
-0.317383,0.397339,-0.963989,-31.372068,15.380858,-43.945309
-0.295654,0.278320,-0.953613,-38.269043,14.160155,-45.654293
-0.267944,0.375244,-0.947266,-46.203609,15.258788,-30.334471
-0.267334,0.380859,-0.986572,-49.560543,12.512206,-38.391113
-0.292847,0.291382,-0.967896,-50.842281,2.502441,-44.677731
-0.300415,0.268311,-0.947632,-51.208492,2.685547,-41.748043
-0.281128,0.328125,-1.008911,-55.053707,6.347656,-34.484863
-0.275757,0.382446,-1.011597,-70.617676,2.990722,-42.297359
-0.276001,0.322876,-1.033813,-65.429687,1.159668,-52.307125
-0.284424,0.195190,-1.010864,-37.658691,-9.338379,-55.908199
-0.274658,0.194824,-0.892578,-22.827147,-11.413573,-43.212887
-0.266357,0.234375,-0.882324,-20.263670,-2.136230,-32.714844
-0.257324,0.321533,-0.884644,-25.146482,5.676269,-35.766602
-0.273560,0.298340,-0.987671,-30.517576,7.995605,-38.879395
-0.275635,0.318115,-1.017944,-36.560059,5.737304,-40.466305
-0.278564,0.308716,-1.088135,-36.376953,3.784179,-48.583981
-0.290527,0.217407,-1.169678,-39.550781,-2.380371,-53.283688
-0.291992,0.148437,-1.091675,-46.569820,-16.174316,-53.649899
-0.288086,0.146606,-1.068726,-45.837399,-18.188477,-45.410152
-0.282837,0.178223,-1.055298,-44.494625,-18.127441,-39.916992
-0.284424,0.171265,-1.054810,-44.311520,-17.944336,-38.452148
-0.288574,0.178467,-1.150269,-43.151852,-17.700195,-36.071777
-0.282959,0.094116,-1.180908,-37.902832,-26.611326,-37.780762
-0.271851,0.053223,-1.105225,-42.114254,-38.452148,-34.179687
-0.258057,0.058350,-1.008789,-53.466793,-32.409668,-30.639647
-0.244995,0.029907,-1.061035,-52.612301,-29.663084,-29.235838
-0.221313,0.026978,-1.080444,-47.363277,-31.616209,-24.108885
-0.209106,-0.022339,-1.099976,-47.485348,-36.010742,-20.812986
-0.204834,-0.032104,-1.080078,-54.504391,-41.625973,-13.122558
-0.191406,-0.006836,-1.079834,-60.241695,-45.471188,-8.056641
-0.169556,-0.046143,-0.959961,-59.631344,-46.997066,-6.774902
-0.143066,-0.092773,-0.946655,-54.382320,-39.306641,-2.441406
-0.116577,-0.121460,-0.956421,-45.593258,-31.311033,3.295898
-0.102417,-0.086670,-1.040527,-37.719727,-25.512693,10.253905
-0.094360,-0.066895,-1.214478,-38.085937,-30.700682,10.070800
-0.096069,-0.200562,-0.990356,-40.283199,-52.551266,9.765625
-0.085205,-0.159546,-0.908081,-45.043941,-51.574703,22.766111
-0.077271,-0.161255,-0.952026,-45.410152,-42.419430,31.311033
-0.045654,-0.144409,-0.987549,-36.132812,-42.907711,38.879395
-0.013916,-0.080078,-0.956543,-29.052732,-45.288082,36.804199
-0.001831,-0.124268,-0.942139,-26.062010,-45.776363,34.179687
0.007324,-0.197388,-0.897705,-15.563964,-48.156734,33.020020
0.018311,-0.230591,-0.847900,-11.047362,-44.677731,39.550781
0.053223,-0.130005,-0.901123,-13.488769,-39.306641,44.921871
0.071289,-0.098877,-0.959839,-17.211914,-38.879395,43.579098
0.071655,-0.168579,-0.938843,-18.676758,-46.691891,37.841797
0.070435,-0.229370,-0.929443,-20.019531,-49.072262,48.339840
0.088501,-0.156738,-0.830811,-18.737793,-50.292965,54.443356
0.108154,-0.081055,-0.777710,-13.793944,-45.654293,57.800289
0.119019,-0.088623,-0.793701,-3.723144,-38.513184,54.687496
0.142334,-0.077637,-0.790039,6.896972,-34.301758,55.603024
0.162720,-0.013428,-0.845825,11.413573,-32.104492,54.260250
0.174316,-0.090332,-0.927734,18.127441,-33.813477,44.250484
0.173828,-0.162476,-0.866211,19.714355,-44.128414,43.640133
0.183838,-0.172852,-0.662109,21.423338,-41.687008,52.429195
0.211304,0.042480,-0.707520,25.512693,-22.277830,67.321777
0.230103,0.127441,-0.833862,29.663084,-13.305663,56.762691
0.234741,0.133057,-0.868164,31.616209,-18.127441,39.489746
0.249390,0.131348,-0.879150,33.203125,-25.207518,21.179197
0.249390,0.026978,-0.843262,32.897949,-28.930662,14.038085
0.228760,-0.134521,-0.630493,27.709959,-33.264160,16.601562
0.231445,-0.085327,-0.605835,22.338865,-12.817382,39.733887
0.243896,0.129028,-0.855469,20.324705,-1.892090,45.227047
0.253784,0.226807,-0.924683,22.033689,-4.943848,42.236324
0.260864,0.251221,-0.864258,27.954100,-17.028809,28.503416
0.254761,0.179687,-0.777954,32.348633,-18.798828,17.822266
0.251465,0.036499,-0.705933,36.499023,-14.648437,7.507324
0.251465,0.106812,-0.852905,35.766602,2.258301,17.944336
0.248535,0.135620,-0.930420,39.184570,4.577637,21.545408
-0.234863,0.386230,-0.823853,7.690429,22.766111,-7.568359
-0.224487,0.503052,-0.911499,4.821777,36.560059,14.953612
-0.230469,0.615479,-0.964233,10.192870,32.531738,12.451171
-0.256470,0.593750,-0.807861,16.296387,19.836426,-4.638672
-0.268555,0.554077,-0.796631,11.230468,28.686522,-16.601562
-0.270508,0.510498,-0.968262,8.911133,33.325195,-18.127441
-0.254517,0.496460,-0.951538,5.981445,24.658201,-18.310547
-0.261475,0.489502,-0.809204,3.112793,17.089844,-18.127441
-0.277466,0.490845,-0.811523,2.990722,26.123045,-18.249512
-0.302368,0.457886,-0.951050,5.310058,29.785154,-18.005371
-0.284668,0.535889,-0.965942,9.460449,24.597166,-10.253905
-0.271606,0.605225,-0.928833,12.878417,16.723633,-15.808105
-0.260986,0.552612,-0.913086,12.329101,15.991210,-24.353025
-0.261841,0.465210,-0.879028,3.784179,15.075683,-32.043457
-0.270630,0.401733,-0.809692,-6.652832,17.517090,-29.113768
-0.277588,0.440186,-0.804443,-10.864257,25.512693,-15.747069
-0.286499,0.558960,-0.898560,-9.338379,29.113768,-13.061522
-0.284180,0.577393,-0.988037,-1.892090,26.672361,-15.502929
-0.283691,0.539795,-0.975708,8.300781,13.427733,-16.601562
-0.280029,0.457886,-0.816284,16.174316,5.249023,-13.305663
-0.276123,0.451538,-0.696167,8.972168,14.160155,-8.422852
-0.276978,0.527954,-0.719849,0.854492,22.949217,-9.582520
-0.300171,0.491577,-0.839844,-16.357422,35.217285,-17.944336
-0.304932,0.483887,-0.885376,-14.892577,34.606934,-10.925292
-0.310791,0.448486,-0.932373,-7.751464,30.395506,-6.958007
-0.301147,0.382080,-0.842529,-3.356933,19.226074,-2.563476
-0.292603,0.438599,-0.840576,-8.666992,20.690916,1.708984
-0.289307,0.491333,-0.832642,-16.174316,20.324705,0.366211
-0.299561,0.637573,-0.812500,-32.104492,25.024412,-16.967773
-0.348145,0.553833,-0.958618,-36.682129,26.550291,-31.188963
-0.363647,0.340210,-1.009399,-32.653809,19.897461,-39.916992
-0.339111,0.479004,-0.932251,-26.794432,10.620116,-22.521971
-0.338501,0.529541,-0.902832,-31.066893,7.141113,-30.578611
-0.347412,0.527832,-0.847168,-41.992184,7.568359,-39.123535
-0.364136,0.390259,-1.005615,-46.569820,21.240232,-55.664059
-0.363403,0.338135,-1.094116,-22.338865,14.160155,-50.659176
-0.352051,0.386963,-0.976685,-17.089844,1.403808,-43.273922
-0.368530,0.413940,-0.915771,-18.066406,1.892090,-44.250484
-0.389160,0.366821,-0.925781,-17.822266,4.943848,-45.654293
-0.378906,0.385254,-0.958008,-18.615723,10.620116,-37.292480
-0.366821,0.515991,-1.071533,-39.611816,6.591796,-47.851559
-0.373901,0.409790,-1.123535,-45.410152,1.403808,-56.884762
-0.380005,0.326294,-1.086182,-43.945309,-10.864257,-61.401363
-0.376343,0.278687,-0.988770,-44.860836,-18.066406,-55.664059
-0.368896,0.329102,-1.041138,-45.288082,-13.610839,-42.968746
-0.362183,0.341553,-1.088379,-45.288082,-13.977050,-39.672852
-0.351929,0.359375,-1.215576,-42.541500,-25.939939,-40.039062
-0.332764,0.406006,-1.103394,-39.367676,-35.705566,-42.114254
-0.311279,0.283447,-0.977417,-44.433590,-41.625973,-52.734371
-0.295166,0.196899,-0.991211,-44.799801,-35.766602,-49.865719
