aX,aY,aZ,gX,gY,gZ
-0.172363,-0.163330,-1.026733,21.362303,6.469726,40.893551
-0.179077,-0.260498,-1.056763,23.010252,-4.455566,40.344234
-0.179932,-0.246094,-1.061768,27.832029,-15.380858,53.405758
-0.177612,-0.145264,-0.969482,31.372068,-21.484373,65.429687
-0.151611,0.040894,-0.854492,30.517576,-15.991210,66.528320
-0.140015,0.006714,-0.946289,29.174803,-2.258301,53.161617
-0.141724,-0.032104,-0.964355,27.465818,-1.892090,44.677731
-0.145142,-0.075562,-1.078125,27.954100,-5.432128,45.776363
-0.144531,-0.077759,-1.142578,28.930662,-13.916015,49.133297
-0.125854,0.084351,-0.888672,30.029295,-29.907225,57.128902
-0.100586,0.212524,-0.889648,30.456541,-17.211914,50.781246
-0.088379,0.207153,-0.940552,20.202635,-9.094238,29.846189
-0.085693,0.071289,-1.095947,13.977050,-12.145995,18.920898
-0.099365,-0.084106,-1.018799,11.779784,-26.245115,12.390136
-0.098877,-0.057983,-0.915039,12.573241,-18.615723,29.174803
-0.076782,0.183716,-0.893799,8.972168,5.798339,34.057617
-0.062866,0.262695,-1.015503,7.812500,9.460449,25.756834
-0.072754,0.170288,-1.041260,6.896972,5.371093,6.591796
-0.079346,0.083374,-1.071777,10.192870,1.342773,-3.112793
-0.078491,-0.028320,-1.093506,12.451171,-6.713867,4.394531
-0.073364,0.081787,-0.880127,10.131835,-6.225585,10.620116
-0.077515,0.190552,-0.970581,4.089355,12.695312,11.230468
-0.080933,0.168335,-1.016357,0.793457,15.380858,-1.770019
-0.080933,0.111816,-1.018799,0.915527,13.122558,-6.286621
-0.089111,0.060303,-1.011475,-0.427246,9.765625,-12.878417
-0.093384,0.025024,-1.023071,-0.915527,8.117676,-13.183593
-0.088745,0.051880,-1.018311,-1.403808,5.371093,-9.948730
-0.087402,0.125610,-0.991089,-6.469726,3.845215,-13.183593
-0.103027,0.059082,-0.950317,-11.474608,3.051758,-23.986814
-0.108154,0.016724,-0.957397,1.647949,8.361816,-25.512693
-0.108887,-0.015259,-1.002075,6.835937,10.681151,-18.188477
-0.099609,0.036987,-0.971191,1.586914,10.620116,-16.479492
-0.102783,0.046509,-0.985840,-8.178711,14.831542,-17.578125
-0.104248,0.072510,-1.021484,-12.695312,13.549804,-21.118162
-0.113525,0.119629,-0.986084,-14.587401,9.338379,-26.367186
-0.124023,0.023560,-0.872803,-17.211914,5.981445,-39.672852
-0.138306,-0.016113,-0.918823,-17.395020,13.977050,-40.466305
-0.146851,-0.028564,-0.972534,-13.000487,19.165039,-36.865234
-0.158569,-0.070679,-1.042725,-2.258301,20.812986,-29.235838
-0.156616,-0.027710,-1.047852,-1.586914,18.798828,-26.733397
-0.163208,0.037842,-0.979248,-10.131835,16.418457,-31.311033
-0.180786,-0.029785,-0.953369,-24.963377,11.352538,-44.006344
-0.186646,-0.070679,-0.956421,-21.789549,11.169433,-45.837399
-0.195312,-0.153687,-1.037598,-17.272949,11.962890,-43.762203
-0.192627,-0.179077,-1.026245,-8.239746,5.615234,-33.508301
-0.186035,-0.129028,-0.970703,-2.380371,2.868652,-21.301268
-0.177368,-0.004395,-0.876709,-6.652832,15.258788,-25.451658
-0.190186,-0.006958,-0.964722,-14.160155,20.751951,-32.287598
-0.211792,-0.084961,-1.059692,-27.282713,15.747069,-41.015621
-0.215942,-0.137817,-1.071899,-24.780272,6.530761,-40.100098
-0.213257,-0.206787,-1.038452,-9.826660,2.075195,-31.738279
-0.204590,-0.139404,-0.945190,-3.723144,0.122070,-27.343748
-0.204224,-0.093140,-0.881714,0.671387,3.173828,-24.353025
-0.202393,-0.073120,-0.858398,-5.493164,15.258788,-27.282713
-0.206421,-0.051636,-0.960571,-12.084960,18.493652,-28.930662
-0.219238,-0.113403,-1.105835,-22.033689,15.747069,-34.729004
-0.221313,-0.171021,-1.113647,-16.479492,2.746582,-32.897949
-0.216919,-0.158203,-0.996826,-5.432128,-5.249023,-24.230955
-0.213989,-0.117554,-0.877441,-0.061035,-1.098633,-21.850584
-0.221924,-0.122559,-0.855347,-2.746582,3.356933,-21.667479
-0.229370,-0.132080,-0.966797,-17.517090,12.023925,-23.193357
-0.231079,-0.173706,-1.028076,-23.193357,9.460449,-26.550291
-0.230225,-0.263794,-1.045044,-16.113281,0.549316,-21.362303
-0.224243,-0.307983,-0.955078,-11.840819,-2.258301,-15.930175
-0.221436,-0.271851,-0.890015,-6.774902,-3.662109,-3.662109
-0.221558,-0.231934,-0.884277,-9.094238,-0.122070,2.563476
-0.220093,-0.207642,-0.911621,-10.559081,2.685547,0.732422
-0.215210,-0.268677,-0.955811,-8.728027,2.807617,0.244141
-0.222656,-0.327515,-0.982788,-5.310058,-0.915527,4.577637
-0.227295,-0.328857,-0.953369,-2.746582,-5.798339,15.136718
-0.234619,-0.264771,-0.953735,-2.624511,-6.469726,23.803709
-0.241577,-0.176392,-0.940918,-3.723144,-7.751464,25.634764
-0.239136,-0.179565,-1.029541,-3.479004,-6.164550,23.254393
-0.234131,-0.227173,-1.074707,4.394531,-13.671874,21.972654
-0.217896,-0.305420,-0.999023,12.573241,-21.972654,30.517576
-0.223633,-0.305054,-0.961548,13.793944,-23.193357,35.400391
-0.230835,-0.292480,-0.820801,14.038085,-21.789549,46.081539
-0.226196,-0.212402,-0.812622,12.145995,-4.577637,57.128902
-0.220337,-0.077515,-0.977539,8.361816,2.929687,51.818844
-0.216431,-0.103638,-1.132813,9.643555,-2.258301,47.546383
-0.199585,-0.172485,-1.092896,22.155760,-19.531250,46.569820
-0.191772,-0.162231,-1.025391,31.433104,-29.907225,54.687496
-0.188599,-0.094238,-0.830444,31.311033,-29.113768,57.678219
-0.180908,0.020264,-0.869385,24.841307,-11.230468,58.349606
-0.189331,0.061523,-1.048340,17.944336,-1.281738,48.278805
-0.190674,0.022095,-1.147583,17.822266,-7.629394,37.231445
-0.179443,-0.132080,-1.166626,21.606443,-16.174316,36.865234
-0.148560,0.012695,-0.878174,22.277830,-26.428221,50.415035
-0.133301,0.097168,-0.864868,13.977050,-10.375976,49.499508
-0.114258,0.075073,-0.964722,10.314940,-5.737304,33.569336
-0.107422,-0.016968,-0.993042,10.742187,-9.216309,29.174803
-0.098877,-0.065186,-1.010864,12.878417,-13.061522,27.709959
-0.096069,-0.090942,-0.979736,10.803222,-14.160155,32.287598
-0.086548,-0.045776,-0.881836,7.934570,-11.047362,37.292480
-0.081909,0.075317,-0.924561,0.183105,-1.342773,40.100098
-0.080933,0.091675,-0.953369,2.258301,-0.732422,30.944822
-0.075806,0.105103,-0.955811,10.803222,-2.075195,22.827147
-0.076782,0.071411,-0.987793,13.977050,-1.342773,19.409180
-0.081665,0.058105,-0.937866,14.709472,-1.831055,17.028809
-0.080322,0.072021,-0.928345,12.145995,5.798339,17.944336
-0.075562,0.099487,-0.984619,10.986327,9.704590,17.333984
-0.074829,0.120117,-1.015991,11.657714,9.826660,13.427733
-0.074097,0.143188,-0.994141,11.169433,3.479004,6.713867
-0.080200,0.134766,-0.965454,9.826660,2.380371,2.014160
-0.091187,0.133911,-0.966431,5.493164,4.821777,-3.845215
-0.095215,0.139771,-1.000610,4.028320,8.972168,-9.155273
-0.094360,0.092407,-1.000610,5.371093,11.901855,-13.061522
-0.095825,0.080933,-1.010742,4.516602,13.000487,-11.718749
-0.101440,0.149048,-0.984375,1.220703,11.047362,-12.145995
-0.105591,0.155396,-0.966187,-0.305176,11.169433,-19.165039
-0.107300,0.135010,-0.994019,-3.479004,10.864257,-28.442381
-0.120728,0.070923,-1.000000,-4.272461,8.300781,-31.677244
-0.128052,0.031616,-0.913574,-0.305176,8.728027,-31.311033
-0.124390,0.034668,-0.935913,8.666992,19.531250,-25.451658
-0.124146,0.047729,-0.998291,9.399414,18.127441,-22.827147
-0.132080,0.139893,-0.962524,3.417969,15.502929,-23.986814
-0.159668,0.091431,-0.935669,-20.263670,11.047362,-41.015621
-0.171021,0.045044,-0.958496,-21.179197,15.930175,-48.522945
-0.179443,-0.014038,-1.043213,-17.333984,14.892577,-46.997066
-0.180420,-0.019287,-0.993408,-17.578125,10.314940,-44.189449
-0.185913,0.016968,-0.923706,-20.324705,8.544922,-40.588375
-0.195557,0.031616,-0.957031,-23.437498,14.465331,-44.006344
-0.209473,0.035522,-0.983643,-23.620604,15.869140,-51.452633
-0.222534,-0.031006,-1.050781,-24.230955,16.723633,-55.786129
-0.234009,-0.177734,-1.098022,-24.536131,13.000487,-58.959957
-0.232666,-0.219482,-1.072266,-20.996092,4.882812,-48.522945
-0.229858,-0.168213,-0.968262,-20.751951,1.647949,-41.442867
-0.231567,-0.102905,-0.907715,-21.545408,2.197266,-34.362793
-0.181152,-0.137451,-1.056152,-18.005371,10.620116,-42.724606
-0.187988,-0.127197,-0.969971,-18.554687,3.173828,-35.583496
-0.208252,-0.073730,-0.861816,-18.554687,5.615234,-34.667969
-0.202759,-0.052246,-0.911133,-15.808105,19.653320,-34.912109
-0.213745,-0.039551,-1.017090,-19.409180,23.437498,-40.222164
-0.221436,-0.082764,-1.068115,-24.536131,16.235352,-48.217770
-0.226074,-0.232788,-1.105225,-20.141600,9.948730,-46.630856
-0.231567,-0.146362,-0.916626,-12.145995,-4.272461,-32.287598
-0.235229,-0.088257,-0.858765,-17.761230,1.647949,-30.273436
-0.242920,-0.049683,-0.892090,-20.874022,12.756347,-37.658691
-0.249268,-0.086426,-0.965820,-20.324705,14.953612,-42.114254
-0.250977,-0.221069,-1.048096,-19.592285,14.709472,-47.607418
-0.249268,-0.333374,-1.061768,-11.657714,6.347656,-41.015621
-0.247803,-0.337769,-0.978882,-6.713867,-4.943848,-24.780272
-0.243652,-0.229980,-0.828125,-11.169433,2.197266,-13.488769
-0.248291,-0.176392,-0.863281,-12.756347,9.338379,-13.366698
-0.246338,-0.214600,-0.970947,-12.573241,14.587401,-18.554687
-0.244995,-0.277954,-0.990723,-13.305663,7.141113,-22.521971
-0.244507,-0.419556,-0.992798,-11.230468,-1.647949,-11.352538
-0.251587,-0.397949,-0.922119,-8.605957,-4.455566,-1.464844
-0.251465,-0.260010,-0.862793,-3.967285,-2.807617,13.671874
-0.251465,-0.241333,-0.865723,-4.211426,2.258301,15.624999
-0.252686,-0.225220,-0.910034,-5.126953,4.028320,16.052246
-0.248291,-0.234985,-1.041138,-4.028320,4.882812,15.808105
-0.245972,-0.267944,-1.096802,-1.586914,-6.896972,15.991210
-0.249268,-0.338989,-1.044067,-1.586914,-24.963377,22.827147
-0.254028,-0.311523,-0.833496,-2.746582,-28.381346,27.832029
-0.256958,-0.202148,-0.749146,-3.479004,-16.174316,36.315918
-0.253906,-0.174194,-0.843018,6.347656,2.563476,35.156250
-0.246826,-0.237427,-1.081665,11.718749,-4.272461,32.165527
-0.239746,-0.308472,-1.147095,13.671874,-13.793944,35.949707
-0.231567,-0.170532,-0.897827,13.366698,-29.541014,49.987789
-0.223511,-0.090698,-0.788574,9.399414,-18.249512,51.208492
-0.208862,-0.085327,-0.901733,14.953612,-2.807617,42.297359
-0.205444,-0.182739,-1.079102,18.981934,-4.516602,39.489746
-0.205444,-0.306763,-1.173218,26.916502,-16.601562,43.701168
-0.204346,-0.216553,-0.937988,29.418943,-39.123535,61.157223
-0.194336,-0.093994,-0.701782,24.841307,-33.386230,71.838379
-0.160522,0.053345,-0.727051,24.414061,-11.657714,68.176270
-0.153320,-0.052979,-1.028687,28.076170,9.521484,51.208492
-0.157227,-0.109863,-1.034058,32.531738,-3.967285,46.752926
-0.164185,-0.121338,-1.109863,35.278320,-14.343261,52.490231
-0.166748,-0.086670,-0.968262,35.156250,-22.155760,56.030270
-0.141235,0.127319,-0.860474,27.770994,-12.878417,66.772461
-0.131226,0.204468,-0.937134,23.742674,3.906250,56.823727
-0.131226,0.170532,-0.998901,21.301268,3.173828,45.898434
-0.138672,0.041260,-1.111450,25.695799,-1.403808,30.029295
-0.138306,-0.023315,-1.120239,37.353516,-10.803222,31.555174
-0.119141,0.050659,-0.979004,26.855467,-12.145995,39.428711
-0.113403,0.156616,-0.915894,16.906738,-8.239746,37.475586
-0.108032,0.153198,-0.968628,5.798339,1.647949,27.282713
-0.105591,0.146240,-1.010132,4.394531,3.967285,15.808105
-0.105835,0.097046,-1.047852,7.019042,1.708984,10.009766
-0.108032,0.014282,-1.021484,14.343261,-3.234863,3.845215
-0.108398,-0.013672,-0.977539,17.150879,-4.333496,8.056641
-0.098755,0.057129,-0.953491,14.343261,-0.244141,15.563964
-0.100586,0.184082,-0.968750,11.352538,1.037598,13.244628
-0.101074,0.196899,-0.949585,6.347656,5.859375,1.037598
-0.100220,0.163208,-0.986206,5.493164,11.962890,-11.291503
-0.105103,0.037720,-1.049316,3.662109,10.681151,-15.075683
-0.116699,0.017944,-1.024292,-1.831055,4.333496,-13.793944
-0.122070,0.034668,-0.988525,-1.770019,4.699707,-9.216309
-0.124878,0.068726,-1.001587,0.244141,9.826660,-6.591796
-0.125244,0.119263,-0.944458,0.671387,9.765625,-7.385253
-0.123779,0.156128,-0.928711,-1.708984,15.441894,-13.916015
-0.130615,0.124390,-0.977661,-5.798339,18.920898,-26.672361
-0.143799,0.005859,-1.047607,-6.469726,16.601562,-30.029295
-0.145874,0.006836,-1.050903,-10.986327,10.620116,-28.137205
-0.147583,0.004639,-1.024292,-15.380858,8.056641,-26.184080
-0.147949,0.047363,-0.946411,-14.770507,10.253905,-23.193357
-0.158813,0.079468,-0.875488,-13.671874,14.160155,-23.132322
-0.169800,0.135376,-0.962769,-12.695312,24.047850,-27.099607
-0.172363,0.101440,-1.011597,-16.418457,22.216795,-41.687008
-0.170532,-0.012451,-1.080322,-19.104004,9.582520,-47.973629
-0.168213,-0.064819,-1.010864,-18.493652,3.601074,-46.569820
-0.162231,-0.031128,-0.915405,-17.028809,0.915527,-39.001465
-0.167969,-0.012573,-0.905884,-22.216795,7.446289,-35.827637
-0.187500,0.008179,-0.928711,-26.794432,13.671874,-37.475586
-0.200073,-0.025024,-1.018677,-26.123045,14.587401,-39.611816
-0.207886,-0.058716,-1.037964,-22.460936,8.178711,-41.870113
-0.212280,-0.087280,-0.988037,-22.705076,1.159668,-42.541500
-0.209351,-0.120483,-0.929077,-22.644041,2.136230,-40.527340
-0.202148,-0.075806,-0.923096,-21.911619,6.835937,-35.827637
-0.202148,-0.052979,-0.915405,-22.949217,11.413573,-36.743164
-0.214600,-0.062744,-0.966919,-22.094725,13.549804,-40.527340
-0.235962,-0.077881,-0.957275,-21.179197,12.939452,-40.832516
-0.242798,-0.120850,-0.984375,-18.737793,17.883301,-41.687008
-0.240479,-0.147705,-1.045166,-9.887695,14.465331,-38.696289
-0.253540,-0.146240,-1.000122,-14.160155,4.211426,-35.705566
-0.260254,-0.137207,-0.911865,-17.456055,5.615234,-35.034180
-0.259644,-0.173096,-0.984009,-20.812986,13.366698,-34.973145
-0.249146,-0.188599,-1.026611,-17.333984,11.291503,-31.311033
-0.249512,-0.138428,-0.984253,-16.357422,3.112793,-26.672361
-0.262695,-0.087891,-0.896729,-17.761230,2.868652,-28.381346
-0.270508,-0.143677,-0.938721,-16.296387,9.216309,-32.592773
-0.270386,-0.172241,-0.990967,-14.160155,10.864257,-32.226562
-0.262939,-0.242432,-1.062622,-9.521484,2.502441,-27.343748
-0.258301,-0.267822,-0.987793,-6.408691,-3.295898,-22.705076
-0.257080,-0.215210,-0.841064,-5.371093,-7.263183,-14.404296
-0.258057,-0.235352,-0.843140,-11.718749,1.098633,-13.793944
-0.261230,-0.323730,-0.912720,-10.681151,4.699707,-8.544922
-0.254639,-0.355347,-0.957031,-6.896972,3.479004,-3.845215
-0.248413,-0.333862,-0.944702,-4.089355,-1.647949,5.554199
-0.248535,-0.335815,-0.915771,1.281738,-6.958007,13.977050
-0.252930,-0.281982,-0.864624,2.502441,-5.737304,22.949217
-0.263306,-0.230103,-0.852661,-0.488281,-3.845215,24.475096
-0.265259,-0.198608,-0.946899,-4.455566,4.272461,26.428221
-0.266968,-0.206299,-1.044312,-0.305176,3.295898,25.512693
-0.269165,-0.265259,-1.085083,5.615234,-3.417969,26.306150
-0.263672,-0.266968,-0.933960,18.981934,-14.099120,34.301758
-0.262695,-0.242310,-0.878906,22.277830,-10.803222,42.602535
-0.259644,-0.193604,-0.898560,15.808105,-5.310058,44.921871
-0.254272,-0.178955,-1.006592,13.122558,-5.798339,44.250484
-0.258301,-0.164917,-1.009155,13.549804,-16.174316,43.762203
-0.254761,-0.145508,-0.988159,18.798828,-19.226074,45.837399
-0.250366,-0.151001,-0.966309,22.216795,-17.272949,46.874996
-0.231689,-0.109497,-0.936279,27.526854,-11.657714,51.818844
-0.215576,-0.128662,-1.057495,25.329588,-8.300781,49.316402
-0.218994,-0.180420,-1.082397,22.766111,-21.911619,45.837399
-0.221924,-0.226074,-0.972900,23.742674,-28.686522,49.621578
-0.213135,-0.081055,-0.948730,26.672361,-28.564451,61.767574
-0.203735,-0.037598,-0.957031,28.625486,-26.062010,62.561031
-0.189941,0.018188,-0.962036,30.761717,-24.536131,58.532711
-0.171875,-0.001465,-0.936523,31.921385,-20.507811,56.579586
-0.156494,-0.030273,-1.007935,32.409668,-12.451171,54.443356
-0.157227,-0.033447,-0.989502,23.559568,-16.052246,54.626461
-0.163574,0.027222,-0.952637,19.714355,-15.930175,55.664059
-0.159546,0.139893,-0.883057,16.967773,-10.620116,55.175777
-0.270264,-0.110107,-0.934448,-20.324705,6.469726,-26.550291
-0.274902,-0.155762,-0.967407,-16.601562,6.164550,-30.273436
-0.274658,-0.260620,-0.983398,-13.122558,4.882812,-29.174803
-0.265015,-0.295532,-0.964111,-10.314940,1.342773,-20.568846
-0.262207,-0.261597,-0.919434,-12.573241,-2.136230,-10.803222
-0.261719,-0.219116,-0.896240,-9.643555,-2.197266,-5.615234
-0.264771,-0.240234,-0.904175,-6.713867,-1.098633,-6.103515
-0.260620,-0.294312,-0.923340,-1.342773,-0.061035,-3.845215
-0.257568,-0.327515,-0.955322,1.892090,-1.342773,3.173828
-0.256226,-0.331543,-0.925049,2.990722,-5.615234,13.000487
-0.257690,-0.228882,-0.859741,2.136230,-4.943848,17.883301
-0.263062,-0.190674,-0.902222,1.708984,-0.122070,18.920898
-0.262695,-0.215698,-0.950439,5.493164,1.464844,18.249512
-0.263184,-0.239746,-0.985107,8.666992,-0.488281,20.446775
-0.262451,-0.290161,-1.030029,10.559081,-3.662109,23.681639
-0.270386,-0.288940,-0.931274,16.418457,-12.817382,33.264160
-0.272217,-0.251953,-0.846924,20.812986,-11.840819,44.433590
-0.265747,-0.123779,-0.861938,16.357422,-0.610352,47.119137
-0.264526,-0.101196,-0.969482,11.352538,1.892090,44.555660
-0.268066,-0.166382,-1.135254,8.728027,0.244141,39.733887
-0.269165,-0.183838,-1.161499,21.057127,-16.662598,43.945309
-0.264038,-0.132935,-0.986572,24.353025,-24.963377,48.339840
-0.251953,-0.042847,-0.901611,25.146482,-24.291990,52.673336
-0.233032,-0.024170,-0.897461,26.794432,-15.014647,47.119137
-0.223999,-0.042725,-0.959961,20.935057,-10.559081,36.682129
-0.221802,-0.170898,-1.078003,19.836426,-15.014647,32.470703
-0.230469,-0.262085,-0.985840,25.817869,-29.296873,39.184570
-0.229004,-0.175659,-0.886841,30.090330,-24.291990,62.499996
-0.211914,0.120850,-0.896240,25.878904,-5.615234,61.401363
-0.204468,0.161865,-1.010498,22.460936,-3.234863,50.903316
-0.185425,0.052246,-1.080688,21.911619,-5.065917,32.714844
-0.174438,-0.013672,-1.151489,24.658201,-16.540527,24.658201
-0.177612,-0.131958,-1.059692,22.766111,-28.259275,25.878904
-0.161133,-0.010986,-0.861938,17.578125,-33.203125,41.320797
-0.148437,0.168335,-0.888062,20.446775,-15.441894,46.997066
-0.145996,0.196045,-0.928467,19.531250,-6.225585,34.606934
-0.139648,0.159912,-1.006104,17.333984,-5.981445,26.733397
-0.131226,0.104736,-1.017090,17.639160,-10.192870,15.869140
-0.128906,0.096436,-0.969971,14.343261,-12.329101,12.695312
-0.118042,0.094360,-0.953247,10.559081,-2.075195,12.817382
-0.120728,0.078003,-1.037964,10.070800,-0.854492,11.230468
-0.122803,0.118408,-0.976318,8.789063,-5.310058,10.498046
-0.120361,0.173706,-0.941040,6.286621,-1.770019,7.995605
-0.115967,0.187988,-0.994263,4.394531,2.319336,3.295898
-0.115112,0.172729,-1.000366,-0.183105,3.051758,-4.821777
-0.114624,0.150269,-0.996216,-1.770019,3.356933,-10.681151
-0.110840,0.116577,-1.054199,-3.845215,2.563476,-12.207030
-0.115601,0.125610,-1.005371,-4.455566,-1.159668,-13.305663
-0.129272,0.129883,-0.873779,-1.647949,-0.854492,-14.526366
-0.131470,0.138184,-0.868774,6.469726,14.343261,-15.380858
-0.123535,0.149414,-0.971069,9.521484,21.301268,-20.202635
-0.123779,0.119141,-1.037476,8.544922,17.211914,-24.169920
-0.130493,0.111206,-0.952271,8.728027,9.216309,-27.038572
-0.134766,0.126465,-0.947754,4.821777,12.634276,-27.832029
-0.141968,0.155029,-0.970337,-6.286621,9.277344,-34.179687
-0.162720,0.162598,-0.874023,-20.202635,7.934570,-41.564938
-0.172241,0.040894,-0.924072,-23.925779,19.958496,-50.537106
-0.169800,0.070557,-1.071533,-13.671874,26.611326,-46.874996
-0.173096,0.109009,-1.034424,-20.324705,12.023925,-49.316402
-0.188354,0.093750,-0.888550,-27.770994,9.094238,-53.649899
-0.203979,0.019287,-0.946411,-34.240723,17.089844,-60.058590
-0.210205,-0.037354,-1.015503,-30.334471,17.639160,-63.232418
-0.215088,-0.109497,-1.018677,-25.939939,7.629394,-56.823727
-0.233276,-0.098145,-0.988647,-25.573729,5.920410,-53.039547
-0.250366,-0.098633,-0.969116,-22.460936,7.568359,-48.095699
-0.250244,-0.074951,-0.947632,-15.563964,13.000487,-45.837399
-0.240234,-0.031006,-0.937256,-19.042969,14.892577,-48.706051
-0.247803,-0.080933,-0.951660,-23.193357,15.197753,-51.635738
-0.253540,-0.209717,-1.053711,-28.808592,16.967773,-53.161617
-0.242554,-0.152222,-0.985474,-20.385740,6.774902,-39.794922
-0.239746,-0.081543,-0.914917,-14.770507,4.638672,-33.996582
-0.238159,-0.013916,-0.866821,-10.864257,8.789063,-36.804199
-0.247803,-0.010376,-0.895874,-10.314940,16.113281,-43.212887
-0.266479,-0.115723,-1.009888,-20.751951,19.287109,-50.109859
-0.272217,-0.189697,-1.074097,-20.629881,14.709472,-47.302242
-0.269409,-0.269653,-1.086060,-14.526366,2.380371,-32.226562
-0.266235,-0.143311,-0.890137,-14.160155,-1.953125,-24.291990
-0.264893,-0.038818,-0.847656,-13.305663,7.446289,-21.301268
-0.269409,-0.052124,-0.909180,-12.634276,15.563964,-29.907225
-0.289185,-0.132080,-0.930176,-15.686034,12.451171,-35.705566
-0.283813,-0.234619,-1.030640,-16.662598,12.817382,-35.034180
-0.273315,-0.310913,-1.104004,-16.113281,5.310058,-26.123045
-0.272827,-0.281006,-1.015137,-14.343261,-9.277344,-10.437011
-0.270508,-0.126343,-0.808350,-13.244628,-8.911133,-6.164550
-0.272949,-0.127930,-0.856934,-8.850098,4.028320,-11.047362
-0.277100,-0.268066,-0.927734,-6.286621,8.911133,-17.211914
-0.278809,-0.304810,-0.978394,-8.544922,7.751464,-10.925292
-0.284302,-0.351074,-1.052124,-8.605957,3.784179,-5.371093
-0.288208,-0.276855,-0.931885,-7.873535,-6.225585,8.789063
-0.287354,-0.224487,-0.892700,-10.131835,-4.760742,16.174316
-0.289429,-0.168091,-0.859375,-9.948730,0.976562,14.038085
-0.288818,-0.203979,-0.934692,-10.253905,3.479004,12.023925
-0.292969,-0.310913,-1.090698,-12.268065,0.305176,10.864257
-0.298096,-0.376099,-1.053345,-10.314940,-16.174316,20.141600
-0.296875,-0.362671,-0.937744,-4.150391,-23.193357,36.743164
-0.290283,-0.289795,-0.821289,-0.366211,-10.009766,48.767086
-0.284180,-0.210449,-0.896606,-1.159668,-5.187988,51.513668
-0.274658,-0.151367,-1.036011,-6.835937,-5.676269,49.011227
-0.269531,-0.174805,-1.112305,-1.281738,-19.470215,40.344234
-0.269287,-0.302612,-0.966553,8.666992,-29.113768,39.855957
-0.252197,-0.306274,-0.746338,24.597166,-25.268553,51.696774
-0.245605,-0.296631,-0.808472,26.184080,-4.150391,61.157223
-0.248779,-0.288574,-0.949097,27.404783,-5.798339,67.993164
-0.250977,-0.244873,-0.921631,31.555174,-7.446289,72.204590
-0.243530,-0.156372,-1.020264,39.184570,-7.446289,77.392578
-0.246216,-0.139404,-1.060303,40.893551,-20.751951,75.134277
-0.246826,-0.073975,-0.913696,39.062500,-27.770994,75.256348
-0.221924,-0.010986,-0.904907,39.916992,-19.409180,75.622559
-0.218628,-0.048584,-0.933960,46.325680,-11.779784,72.692871
-0.217407,-0.035522,-0.901855,48.156734,-8.300781,76.782227
-0.213013,0.094727,-0.994385,48.645016,-4.699707,77.758789
-0.196899,0.147095,-1.071167,49.804684,-7.141113,71.777344
-0.185181,0.164551,-0.951050,45.349117,-16.052246,63.415524
-0.177124,0.198486,-0.939575,38.024902,-10.131835,56.701656
-0.166626,0.229248,-1.039063,35.888672,-7.263183,51.757809
-0.155640,0.273682,-1.031738,29.785154,-9.887695,43.029781
-0.151733,0.275757,-1.014160,22.644041,-10.803222,31.555174
-0.146118,0.187866,-0.972046,14.099120,-6.591796,25.207518
-0.139648,0.198242,-0.982422,8.117676,-3.540039,24.658201
-0.122559,0.217651,-1.002808,-2.746582,-0.915527,19.470215
-0.118042,0.202637,-1.019043,-2.075195,-3.051758,10.925292
-0.111938,0.194092,-1.010498,2.990722,-9.887695,4.333496
-0.112061,0.187256,-0.941772,2.990722,-11.840819,0.366211
-0.106567,0.160278,-0.921753,2.807617,-3.173828,-3.234863
-0.105103,0.190552,-0.966797,1.037598,5.371093,-4.943848
-0.111084,0.202148,-1.004272,-1.220703,4.394531,-8.789063
-0.112793,0.185059,-0.994141,-4.333496,2.990722,-16.296387
-0.114990,0.163940,-0.998169,-3.723144,2.868652,-23.132322
-0.237061,-0.194458,-0.903809,0.671387,-13.793944,36.804199
-0.227417,-0.095337,-0.909424,-1.525879,-7.507324,41.137691
-0.225464,-0.151001,-0.970215,-3.234863,-6.347656,33.508301
-0.228638,-0.210449,-1.037354,7.263183,-9.765625,34.118652
-0.237549,-0.245239,-1.085815,13.122558,-15.808105,39.916992
-0.231689,-0.174683,-0.942139,18.737793,-26.428221,52.368160
-0.220093,-0.133057,-0.844360,18.859863,-18.981934,59.448238
-0.203247,-0.104370,-0.841553,12.817382,-3.295898,56.945797
-0.209351,-0.173340,-0.969360,10.253905,-0.610352,56.457516
-0.199951,-0.124878,-1.113892,15.930175,-4.943848,62.561031
-0.199829,-0.078979,-1.078003,28.442381,-21.362303,65.002441
-0.193237,0.006836,-0.868164,33.386230,-23.986814,64.453125
-0.167847,0.111694,-0.921631,35.034180,-11.718749,60.119625
-0.161499,0.118408,-0.996582,28.869627,-9.338379,46.508785
-0.154907,0.049927,-1.045166,27.221678,-14.221190,38.269043
-0.139893,-0.016357,-1.015625,28.076170,-15.136718,39.123535
-0.129150,0.029663,-0.917847,26.489256,-13.977050,45.654293
-0.129517,0.095215,-0.861938,15.502929,-7.080078,45.898434
-0.129272,0.199219,-0.894165,10.375976,-0.671387,40.710445
-0.127075,0.159546,-1.013672,6.469726,7.019042,24.353025
-0.123413,0.107666,-1.061279,12.268065,3.845215,13.610839
-0.113403,0.014771,-1.041382,18.249512,-2.807617,14.343261
-0.109619,0.001587,-0.971069,18.432617,-4.089355,17.639160
-0.114746,0.109985,-0.890869,13.549804,-2.563476,22.460936
-0.117310,0.163696,-0.888672,8.605957,6.469726,15.502929
-0.130493,0.184692,-1.012695,7.263183,9.826660,8.239746
-0.137329,0.142944,-1.049438,9.155273,6.286621,-3.356933
-0.136475,0.132812,-1.040283,10.803222,3.662109,-7.812500
-0.139771,0.104370,-1.000244,4.882812,6.469726,-8.911133
-0.146484,0.111328,-1.037842,1.159668,9.155273,-9.094238
-0.157104,0.149902,-1.028442,-4.150391,8.911133,-11.657714
-0.157471,0.174072,-0.998779,-3.173828,9.521484,-17.395020
-0.155762,0.161377,-0.997070,2.197266,11.169433,-25.390623
-0.156616,0.089478,-1.037720,4.638672,9.826660,-29.235838
-0.162842,0.006226,-0.991943,4.211426,4.760742,-31.188963
-0.166016,0.005127,-0.937744,-2.685547,9.155273,-26.367186
-0.167969,0.059326,-0.929932,0.610352,18.493652,-20.751951
-0.158447,0.173096,-0.970093,3.845215,21.301268,-23.437498
-0.166016,0.158691,-0.981812,-8.117676,15.808105,-38.574219
-0.181152,0.101074,-0.969116,-25.390623,8.850098,-52.978512
-0.197510,-0.035156,-1.024536,-22.094725,10.559081,-53.100582
-0.188477,-0.060791,-1.038940,-18.981934,7.934570,-48.339840
-0.188110,-0.007324,-0.899414,-18.127441,0.549316,-40.832516
-0.186035,0.011963,-0.837158,-20.141600,6.530761,-40.527340
-0.201294,0.040161,-0.880249,-28.198240,19.042969,-47.668453
-0.223389,-0.023926,-0.988037,-31.005857,20.935057,-51.208492
-0.231812,-0.119629,-1.056152,-31.433104,19.531250,-52.124020
-0.231689,-0.160889,-1.068237,-25.390623,13.610839,-44.738766
-0.222168,-0.143311,-0.990234,-17.089844,5.920410,-34.484863
-0.226929,-0.072266,-0.889160,-15.197753,5.981445,-32.043457
-0.249146,-0.004028,-0.865479,-13.183593,12.145995,-32.653809
-0.254150,-0.007202,-0.940430,-14.343261,22.277830,-41.625973
-0.249023,-0.121094,-1.104858,-17.272949,13.977050,-45.532223
-0.238525,-0.150024,-1.008301,-18.188477,7.080078,-42.663570
-0.241333,-0.151245,-0.903687,-15.136718,3.479004,-36.560059
-0.254150,-0.128052,-0.882080,-14.404296,8.422852,-31.066893
-0.257935,-0.117798,-0.905151,-19.042969,14.587401,-29.724119
-0.258301,-0.087891,-0.989014,-20.080564,13.122558,-31.188963
-0.263306,-0.126953,-1.039307,-19.531250,10.681151,-32.897949
-0.270630,-0.190430,-1.026855,-11.901855,3.112793,-30.822752
-0.273071,-0.193481,-0.954224,-8.728027,-3.173828,-21.911619
-0.269775,-0.121094,-0.881470,-10.559081,-0.244141,-17.578125
-0.270142,-0.068237,-0.968140,-14.404296,7.507324,-17.639160
-0.265747,-0.114990,-0.955078,-13.732909,5.187988,-24.169920
-0.261597,-0.174316,-0.944580,-12.268065,3.479004,-26.672361
-0.261230,-0.309204,-0.976318,-9.948730,1.342773,-17.395020
-0.262695,-0.291504,-0.937988,-8.361816,-0.915527,-9.277344
-0.267456,-0.192017,-0.864624,-6.774902,-1.892090,0.244141
-0.270142,-0.176880,-0.864136,-5.249023,3.173828,-1.342773
-0.271240,-0.209595,-0.942261,-3.906250,5.004883,-2.563476
-0.267212,-0.275269,-0.966675,-1.403808,3.295898,-0.854492
-0.265503,-0.312744,-0.957397,-1.464844,0.061035,7.141113
-0.266968,-0.290283,-0.956665,1.220703,-3.356933,18.859863
-0.273926,-0.166870,-0.910400,3.601074,-5.432128,23.742674
-0.279419,-0.120239,-0.896973,3.845215,-2.563476,21.545408
-0.274902,-0.218994,-1.036133,4.211426,2.807617,17.211914
-0.269165,-0.285645,-1.067139,7.263183,-6.530761,23.132322
-0.276855,-0.267700,-0.974243,8.605957,-18.493652,35.095215
-0.281006,-0.187134,-0.841919,9.521484,-14.831542,40.222164
-0.269897,-0.112915,-0.968750,12.145995,-2.868652,43.884274
-0.266968,-0.118896,-0.996094,12.207030,-6.469726,40.100098
-0.263794,-0.163086,-1.047974,16.601562,-15.014647,40.283199
-0.260864,-0.189697,-1.061157,17.578125,-21.118162,42.541500
-0.257568,-0.142334,-0.918945,12.939452,-31.127928,48.461910
-0.243042,-0.046631,-0.878540,14.587401,-21.972654,53.955074
-0.235352,-0.027100,-0.946777,18.310547,-11.291503,50.415035
-0.220093,-0.061035,-1.026123,21.240232,-12.878417,46.569820
-0.207275,-0.163086,-1.070801,27.099607,-20.874022,41.320797
-0.209961,-0.229492,-0.915039,28.015135,-29.968260,48.522945
-0.202026,-0.155518,-0.826904,20.812986,-19.531250,63.903805
-0.187012,0.014160,-0.891235,19.470215,-7.995605,60.668941
-0.185059,0.036743,-0.964600,21.911619,-7.446289,55.236813
-0.175659,0.030273,-1.027100,26.367186,-10.681151,46.874996
-0.172363,-0.009766,-1.037476,24.536131,-17.211914,43.640133
-0.163574,-0.014404,-0.966431,21.911619,-18.554687,46.325680
-0.151123,0.059937,-0.975098,22.583006,-11.413573,49.377438
-0.147339,0.139282,-0.964355,20.874022,-8.850098,44.494625
-0.144897,0.157227,-0.941406,16.540527,-7.873535,33.447266
-0.147217,0.151733,-0.932983,16.845703,-5.798339,27.526854
-0.141235,0.084717,-1.008057,16.784668,-0.427246,19.104004
-0.133301,0.089233,-1.035767,14.038085,-1.831055,19.287109
-0.125244,0.141724,-1.010376,9.094238,-4.089355,15.075683
-0.126343,0.129517,-1.010132,7.812500,-4.455566,11.352538
-0.127808,0.099121,-0.967773,9.826660,-4.760742,6.225585
-0.125977,0.094482,-0.961060,10.192870,-1.464844,3.845215
-0.116821,0.093628,-0.994263,7.629394,-0.305176,2.502441
-0.110962,0.094604,-0.963989,1.708984,-0.732422,0.122070
-0.111572,0.111816,-0.977295,-1.342773,2.136230,-2.624511
-0.121948,0.107300,-1.011475,0.183105,1.953125,-5.371093
-0.127319,0.107788,-0.955811,3.356933,0.000000,-9.094238
-0.126709,0.094727,-0.970093,2.746582,3.356933,-12.451171
-0.125977,0.093262,-0.992187,-0.122070,5.371093,-16.479492
-0.132568,0.076538,-0.988037,0.976562,4.272461,-20.324705
-0.135498,0.084717,-0.954346,1.647949,5.615234,-20.690916
-0.131104,0.051025,-0.994019,-2.380371,11.047362,-24.047850
-0.131348,0.043823,-0.997559,-3.540039,9.826660,-24.353025
-0.129517,0.068848,-0.976196,-6.042480,7.507324,-25.512693
-0.139160,0.092773,-0.992187,-10.070800,4.882812,-27.893064
-0.155884,0.102051,-0.924805,-19.165039,1.953125,-33.569336
-0.164795,0.084229,-0.928589,-20.263670,9.216309,-39.733887
-0.178711,0.013550,-1.006104,-19.104004,12.084960,-41.748043
-0.179199,-0.055054,-1.133545,-18.249512,12.145995,-41.381832
-0.167969,-0.027344,-1.035767,-17.211914,0.732422,-34.973145
-0.168823,0.000000,-0.960449,-16.845703,-2.685547,-32.348633
-0.174927,0.018799,-0.866821,-15.808105,0.427246,-32.409668
-0.176880,0.069214,-0.951294,-21.423338,12.207030,-34.851074
-0.173584,0.023804,-1.012817,-25.939939,13.732909,-43.579098
-0.165283,-0.072510,-1.041504,-26.611326,9.948730,-43.884274
-0.149292,0.086304,-1.031372,7.568359,-1.281738,-0.732422
-0.137939,0.115601,-0.991211,3.601074,-1.342773,0.244141
-0.123047,0.171143,-0.987549,-0.061035,3.906250,-4.638672
-0.123291,0.167725,-1.002930,-1.098633,4.516602,-8.361816
-0.125732,0.152710,-1.008301,-3.784179,4.638672,-15.563964
-0.131592,0.129761,-1.031250,-3.234863,2.685547,-22.705076
-0.137329,0.027588,-0.996460,1.770019,-0.122070,-23.681639
-0.136475,0.007446,-0.915405,1.892090,1.525879,-21.423338
-0.140381,0.000977,-0.953125,-1.464844,10.559081,-18.249512
-0.142212,0.026123,-0.997192,-0.366211,14.282226,-13.366698
-0.138916,0.107788,-0.982666,1.098633,12.756347,-13.427733
-0.141479,0.126465,-0.965942,-1.892090,11.169433,-22.521971
-0.149414,0.082764,-0.985474,-6.958007,10.314940,-33.996582
-0.160278,0.002197,-0.987671,-11.047362,9.948730,-34.057617
-0.166870,0.015259,-1.012329,-14.709472,8.728027,-33.203125
-0.176147,0.061157,-0.972290,-19.409180,3.723144,-32.958984
-0.178101,0.077637,-0.954468,-19.592285,6.469726,-36.132812
-0.177856,0.088013,-0.949219,-17.272949,11.230468,-42.175289
-0.181396,-0.000977,-0.997070,-14.831542,14.160155,-45.104977
-0.185181,-0.098022,-1.039673,-16.174316,11.718749,-44.677731
-0.182861,-0.074707,-0.986450,-24.963377,2.014160,-37.048340
-0.182861,0.028320,-0.880127,-25.695799,4.699707,-38.208008
-0.199585,0.041016,-0.885986,-24.047850,9.277344,-42.236324
-0.218872,-0.066040,-0.976196,-22.338865,16.174316,-52.917477
-0.222412,-0.143311,-1.021729,-22.094725,14.465331,-53.771969
-0.220215,-0.190552,-1.043213,-21.545408,10.742187,-48.278805
-0.221924,-0.139038,-0.969238,-25.573729,6.042480,-38.269043
-0.229370,-0.110840,-0.965698,-20.935057,5.859375,-33.630371
-0.253784,-0.040039,-0.918091,-15.991210,7.080078,-37.231445
-0.261475,-0.084351,-0.940308,-16.357422,11.779784,-42.358395
-0.254761,-0.257935,-1.049316,-18.493652,16.906738,-47.424313
-0.247925,-0.315063,-1.068604,-19.042969,9.460449,-36.132812
-0.239746,-0.277832,-1.013184,-18.005371,-0.427246,-22.277830
-0.244751,-0.241333,-0.918091,-18.005371,-2.319336,-18.981934
-0.248169,-0.202637,-0.853027,-16.418457,0.976562,-15.197753
-0.247681,-0.195923,-0.858887,-11.291503,9.582520,-16.906738
-0.248047,-0.295166,-0.981567,-10.437011,12.329101,-18.737793
-0.241943,-0.409790,-1.056030,-8.178711,6.958007,-13.244628
-0.239502,-0.363037,-0.965454,-5.493164,-4.638672,3.906250
-0.239258,-0.292358,-0.910767,-2.990722,-7.446289,17.089844
-0.240723,-0.200928,-0.862427,-3.051758,-5.249023,18.737793
-0.241577,-0.198364,-0.928467,-5.859375,0.732422,16.357422
-0.242432,-0.236328,-0.982178,-0.366211,0.061035,14.953612
-0.241577,-0.349854,-1.056763,5.859375,-8.056641,25.329588
-0.239502,-0.320313,-0.973999,6.347656,-13.000487,33.752441
-0.236206,-0.258057,-0.928955,8.422852,-14.160155,45.166012
-0.234253,-0.190796,-0.876587,15.869140,-11.596679,46.569820
-0.229004,-0.159668,-0.879761,17.822266,-7.873535,46.691891
-0.224731,-0.218262,-1.043945,20.019531,-3.234863,44.006344
-0.220947,-0.284546,-1.060913,25.146482,-13.427733,49.316402
-0.211060,-0.225220,-0.944702,26.733397,-20.324705,64.880371
-0.196655,-0.037354,-0.853271,26.000975,-16.967773,67.932129
-0.186157,0.032104,-0.956543,24.414061,-7.690429,60.913082
-0.186523,-0.016968,-0.991699,23.498533,-11.962890,48.156734
-0.187134,-0.094482,-1.030518,19.897461,-16.784668,45.043941
-0.194580,-0.134888,-0.922729,14.099120,-26.794432,46.020504
-0.177002,0.006104,-0.841553,21.484373,-14.587401,58.227535
-0.167603,0.092041,-0.958374,26.672361,0.610352,55.603024
-0.162720,0.101318,-1.006714,26.245115,-3.845215,47.485348
-0.150146,0.072876,-0.973877,22.888182,-8.972168,35.949707
-0.148315,0.072266,-0.996826,20.446775,-12.573241,27.893064
-0.149170,-0.015381,-0.982300,17.517090,-13.732909,25.024412
-0.136353,0.001953,-1.001343,15.808105,-9.460449,28.625486
-0.136841,0.023071,-0.977905,18.615723,-8.117676,30.700682
-0.140869,0.051392,-0.891602,18.127441,-0.061035,31.311033
-0.143555,0.133789,-0.956299,16.357422,5.249023,29.052732
-0.144531,0.110107,-1.053467,12.145995,8.117676,20.019531
-0.145264,0.098145,-1.071045,8.728027,3.906250,14.953612
-0.143799,0.095093,-1.052002,8.728027,1.892090,13.916015
-0.138184,0.165649,-0.990967,8.300781,0.854492,12.756347
-0.138550,0.164673,-0.991089,4.028320,4.089355,4.028320
-0.141846,0.108032,-1.035400,1.953125,4.638672,0.061035
-0.138062,0.122437,-1.033569,0.305176,1.342773,-3.479004
-0.136108,0.113037,-1.013184,-0.366211,-0.427246,-7.812500
-0.139771,0.088501,-1.007935,-1.403808,0.000000,-9.521484
-0.147583,0.127563,-0.967651,-2.990722,0.610352,-10.375976
-0.153320,0.113037,-1.024780,-6.469726,5.493164,-16.113281
-0.152954,0.058838,-1.063232,-4.211426,4.211426,-20.751951
-0.147583,0.026733,-1.053955,-1.708984,-1.159668,-17.700195
-0.143311,0.074829,-0.969482,-0.549316,-1.708984,-16.723633
-0.139893,0.085083,-0.915527,1.281738,3.295898,-17.639160
-0.140381,0.099121,-0.925049,0.244141,11.230468,-20.751951
-0.146606,0.112915,-0.933960,-7.080078,13.000487,-29.907225
-0.156616,0.042969,-0.979980,-10.559081,13.610839,-34.301758
-0.158203,-0.051514,-1.020752,-11.352538,14.038085,-35.156250
-0.158691,-0.031128,-0.990845,-12.695312,11.718749,-28.076170
-0.168213,0.075439,-0.943848,-16.784668,11.840819,-32.348633
-0.191406,0.032349,-0.953369,-14.953612,12.207030,-37.353516
-0.196045,-0.022095,-0.979736,-12.573241,15.808105,-40.527340
-0.192993,-0.043823,-1.018311,-15.502929,18.005371,-39.001465
-0.188965,-0.057129,-1.042480,-18.493652,14.709472,-36.926270
-0.187622,-0.000366,-0.964233,-19.287109,6.835937,-32.714844
-0.195679,0.041870,-0.862427,-18.127441,6.591796,-36.987305
-0.205444,0.034668,-0.838623,-22.766111,13.061522,-46.813961
-0.221436,-0.044800,-0.956421,-22.583006,17.333984,-50.415035
-0.226440,-0.207764,-1.102295,-24.841307,19.714355,-52.429195
-0.225342,-0.209717,-1.098877,-23.620604,7.385253,-37.719727
-0.235596,-0.065430,-0.920898,-23.559568,2.990722,-31.249998
-0.246704,-0.007202,-0.852417,-23.437498,9.399414,-34.057617
-0.255249,-0.059204,-0.961060,-18.737793,23.254393,-42.358395
-0.255249,-0.192749,-1.135376,-16.967773,21.362303,-44.494625
-0.253662,-0.242310,-1.144653,-13.244628,2.075195,-35.339355
-0.246826,-0.173096,-0.942627,-11.596679,-5.676269,-28.015135
-0.247070,-0.028931,-0.854736,-13.183593,-1.647949,-22.277830
-0.255981,-0.061401,-0.861816,-14.038085,9.460449,-31.188963
-0.259888,-0.100708,-0.900513,-16.296387,18.127441,-36.743164
-0.265991,-0.236084,-1.074341,-19.775391,8.972168,-34.851074
-0.262573,-0.281982,-1.010742,-18.981934,0.671387,-29.113768
-0.260132,-0.188721,-0.913696,-15.197753,-3.601074,-17.089844
-0.262573,-0.154297,-0.900513,-11.291503,0.366211,-15.991210
-0.265137,-0.179810,-0.900269,-8.056641,2.929687,-19.531250
-0.267212,-0.262939,-0.925903,-7.995605,4.699707,-19.226074
-0.266968,-0.341675,-0.986816,-9.643555,5.920410,-13.977050
-0.263184,-0.369629,-1.011597,-5.737304,-0.122070,-2.258301
-0.259277,-0.323730,-0.954468,-3.662109,-7.568359,8.972168
-0.255493,-0.265869,-0.890747,-2.380371,-7.629394,12.268065
-0.254761,-0.234131,-0.915405,3.417969,-5.615234,15.563964
-0.256348,-0.234863,-0.905029,1.892090,-5.981445,16.296387
-0.263306,-0.254150,-0.960083,-3.662109,-3.906250,19.165039
-0.265869,-0.286621,-1.058105,-3.417969,-7.202148,22.521971
-0.256836,-0.222900,-0.928223,0.122070,-15.747069,32.897949
-0.249146,-0.177856,-0.905273,5.920410,-9.643555,37.414551
-0.244629,-0.171997,-0.942627,9.643555,-9.460449,35.217285
-0.251709,-0.193604,-0.944946,10.314940,-11.169433,34.912109
-0.248169,-0.208496,-1.022095,12.573241,-12.878417,37.780762
-0.244385,-0.220581,-1.020630,19.775391,-17.456055,45.288082
-0.228027,-0.124146,-0.968140,16.174316,-18.615723,51.391598
-0.223267,-0.041870,-0.897583,13.061522,-17.639160,49.621578
-0.250854,-0.159668,-0.981689,-12.268065,16.113281,-31.982420
-0.249268,-0.281860,-1.073975,-9.887695,7.324218,-25.878904
-0.251587,-0.336182,-1.059326,-8.117676,0.793457,-19.287109
-0.253906,-0.312988,-0.898193,-5.310058,-8.178711,-3.051758
-0.257690,-0.236084,-0.891724,-6.958007,-4.150391,9.399414
-0.260132,-0.127319,-0.939331,-4.943848,-2.075195,6.835937
-0.243042,-0.187500,-0.930786,-2.197266,-1.892090,4.272461
-0.230591,-0.241455,-0.951904,1.403808,-0.488281,7.263183
-0.231201,-0.247681,-0.979370,-0.793457,-1.892090,15.502929
-0.235107,-0.234741,-1.034790,1.037598,-9.155273,23.620604
-0.237549,-0.169312,-0.915649,3.601074,-13.061522,27.343748
-0.240112,-0.072144,-0.825439,3.906250,-9.399414,30.090330
-0.241211,-0.065308,-0.849121,2.197266,3.417969,24.963377
-0.237549,-0.115479,-1.036987,1.770019,6.652832,22.094725
-0.237793,-0.216553,-1.131592,3.173828,-4.211426,20.996092
-0.239868,-0.231079,-1.089966,6.652832,-20.874022,31.677244
-0.243286,-0.161621,-0.912109,7.019042,-20.751951,42.785641
-0.233887,-0.053833,-0.935425,7.080078,-14.831542,44.311520
-0.223633,-0.034790,-1.020508,5.249023,-13.000487,36.987305
-0.218628,-0.071533,-1.056274,-0.183105,-23.498533,26.672361
-0.214355,-0.220947,-1.072754,-4.455566,-37.231445,29.968260
-0.211792,-0.289917,-0.866699,-0.244141,-38.696289,39.001465
-0.190674,-0.161255,-0.865356,10.803222,-16.906738,58.959957
-0.189941,-0.035767,-0.946289,11.047362,-5.798339,62.438961
-0.192993,-0.028564,-0.976929,11.291503,-7.019042,53.588863
-0.181274,-0.115112,-1.088135,15.197753,-8.728027,50.231930
-0.167114,-0.177734,-1.129761,18.432617,-21.118162,51.147457
-0.172119,-0.169067,-0.913574,17.456055,-41.076656,58.227535
-0.165894,-0.087158,-0.794922,21.362303,-30.151365,70.312500
-0.143188,0.112915,-0.804077,25.695799,-2.807617,64.941406
-0.131836,0.144287,-0.999634,26.489256,1.831055,56.213375
-0.132812,0.105713,-1.061523,28.869627,-4.150391,40.893551
-0.132202,-0.017944,-1.087402,29.113768,-12.634276,39.489746
-0.121338,-0.056396,-1.048706,26.367186,-16.052246,43.457027
-0.103394,0.108887,-0.919067,18.005371,-18.188477,52.856441
-0.097534,0.200562,-0.895630,13.488769,-9.216309,45.837399
-0.095459,0.240479,-0.910278,12.084960,-1.342773,25.817869
-0.101807,0.090332,-1.024658,11.596679,1.220703,17.883301
-0.094238,0.033813,-1.057007,11.718749,-2.502441,17.150879
-0.086792,0.071777,-1.010010,10.925292,-7.080078,22.155760
-0.081055,0.143188,-0.958130,10.681151,-5.798339,21.179197
-0.083496,0.159668,-0.968140,13.305663,-2.075195,13.732909
-0.084717,0.151489,-0.961304,12.512206,0.061035,5.737304
-0.081665,0.148315,-0.934448,5.371093,4.638672,1.098633
-0.076660,0.173096,-0.978638,1.770019,7.751464,-1.586914
-0.081787,0.123535,-1.024048,-1.281738,8.728027,-8.728027
-0.085571,0.106689,-1.013062,-0.488281,6.530761,-11.047362
-0.098389,0.127441,-1.004395,2.197266,6.469726,-11.413573
-0.105225,0.124268,-0.984253,8.728027,6.286621,-14.099120
-0.106201,0.127686,-0.974487,6.835937,9.338379,-16.845703
-0.102539,0.104248,-1.015747,6.835937,14.038085,-19.042969
-0.104248,0.075928,-1.022095,5.859375,13.671874,-19.653320
-0.113037,0.077881,-0.932983,3.173828,11.291503,-19.836426
-0.116577,0.098022,-0.898560,-1.892090,15.930175,-21.057127
-0.125977,0.138550,-0.963501,-4.028320,20.812986,-28.259275
-0.135620,0.068848,-1.040405,-1.464844,20.202635,-33.386230
-0.139404,-0.018555,-1.076660,3.662109,13.488769,-36.315918
-0.143311,-0.013184,-1.039307,-9.338379,4.211426,-31.127928
-0.145508,0.010498,-0.887207,-13.610839,11.291503,-23.315428
-0.149414,0.126465,-0.899414,-10.803222,20.812986,-22.033689
-0.156128,0.122192,-1.064087,-9.399414,27.709959,-34.362793
-0.162109,0.060059,-1.051758,-19.226074,11.657714,-47.790524
-0.170776,-0.018799,-1.000610,-23.986814,8.117676,-48.156734
-0.174927,-0.082642,-1.043457,-22.338865,8.239746,-43.518063
-0.180420,-0.032104,-0.962158,-17.333984,3.845215,-33.630371
-0.187256,0.020386,-0.907959,-17.883301,6.408691,-32.348633
-0.196289,0.065552,-0.934204,-19.226074,11.657714,-36.376953
-0.194580,-0.003662,-1.031250,-20.996092,17.700195,-46.203609
-0.193237,-0.108154,-1.064209,-24.597166,13.183593,-47.546383
-0.195068,-0.140869,-1.017700,-24.353025,5.004883,-38.085937
-0.182007,-0.089600,-0.909424,-23.986814,5.126953,-31.982420
-0.193115,0.001221,-0.896118,-21.606443,9.765625,-29.479979
-0.221436,-0.012207,-0.914429,-20.202635,13.549804,-36.804199
-0.222656,-0.039307,-0.996094,-15.686034,19.287109,-41.503902
-0.217285,-0.206055,-1.113647,-10.498046,11.352538,-37.536621
-0.207642,-0.183716,-1.030884,-10.070800,5.187988,-29.785154
-0.216797,-0.051514,-0.891846,-16.723633,0.061035,-23.132322
-0.226196,-0.041016,-0.879639,-18.310547,6.591796,-29.663084
-0.232422,-0.081665,-0.944214,-12.878417,11.596679,-34.301758
-0.230713,-0.181030,-0.998169,-11.413573,11.413573,-35.217285
-0.225464,-0.280762,-1.036865,-10.986327,7.873535,-29.235838
-0.223267,-0.246582,-0.998779,-12.329101,0.915527,-16.174316
-0.220093,-0.216187,-0.969360,-12.695312,-2.258301,-8.850098
-0.216553,-0.166870,-0.873047,-11.474608,-1.831055,-7.812500
-0.218262,-0.182617,-0.869995,-8.300781,5.737304,-8.728027
-0.214600,-0.211792,-0.907959,-6.286621,11.047362,-7.751464
-0.209717,-0.298584,-1.035034,-1.464844,5.065917,0.366211
-0.217285,-0.297119,-1.025757,1.464844,-1.647949,7.324218
-0.221802,-0.176025,-0.902222,2.075195,-9.033203,19.348145
-0.226196,-0.130615,-0.878296,-3.417969,-3.662109,19.836426
-0.234253,-0.123291,-0.882935,-6.286621,3.967285,17.456055
-0.238525,-0.175293,-1.022095,-3.906250,6.103515,16.052246
-0.230713,-0.292847,-1.087402,5.554199,-0.305176,18.920898
-0.223633,-0.304199,-1.075439,8.605957,-12.512206,32.714844
-0.225952,-0.236328,-0.980469,1.647949,-20.202635,44.372555
-0.223999,-0.101196,-0.838623,2.807617,-19.226074,47.241207
-0.214966,-0.055542,-0.879517,10.742187,-7.690429,43.151852
-0.211304,-0.097534,-0.942383,13.977050,-2.258301,34.362793
-0.196289,-0.168213,-1.108032,13.732909,-11.474608,34.057617
-0.181030,-0.222290,-1.162354,12.573241,-23.071287,37.536621
-0.202881,-0.148315,-0.864624,6.164550,-48.950191,46.813961
-0.186890,0.017212,-0.655151,13.244628,-30.578611,55.236813
-0.180420,0.049194,-0.837646,30.700682,6.774902,47.119137
-0.173462,-0.018066,-1.085083,33.447266,5.920410,40.100098
-0.154907,-0.125610,-1.158691,26.000975,-9.582520,31.555174
-0.158447,-0.171875,-1.144775,14.587401,-32.165527,35.217285
-0.183838,-0.156006,-0.799927,8.789063,-32.165527,56.884762
-0.161621,0.172729,-0.826904,10.742187,-12.084960,63.903805
-0.154053,0.163696,-1.104004,21.789549,7.690429,45.349117
-0.159058,0.054932,-1.114868,22.766111,-7.812500,27.221678
-0.144165,-0.086670,-1.168945,22.094725,-14.404296,28.015135
-0.133667,-0.052734,-1.077515,18.127441,-33.386230,36.315918
-0.128906,-0.005371,-0.993652,11.169433,-37.475586,41.442867
-0.118164,0.098389,-0.953003,13.977050,-28.686522,38.330078
-0.104736,0.131470,-0.905273,18.554687,-25.329588,32.043457
-0.093628,0.067871,-0.904541,16.418457,-14.587401,21.972654
-0.089478,0.021362,-1.005737,13.977050,-2.014160,20.996092
-0.078369,0.015991,-1.111328,13.732909,-4.577637,23.986814
-0.074707,0.089600,-0.958740,13.000487,-15.869140,28.503416
-0.076172,0.137451,-0.893921,13.122558,-10.803222,26.428221
-0.081055,0.238159,-0.905151,10.864257,2.441406,16.296387
-0.077148,0.251709,-0.987915,10.192870,6.652832,8.666992
-0.066772,0.169189,-1.091309,11.108397,8.239746,-3.479004
-0.068481,0.143066,-1.094604,14.831542,1.770019,-5.798339
-0.081177,0.128540,-0.957031,28.869627,8.789063,-1.159668
-0.093872,0.195801,-0.904663,35.766602,18.554687,3.662109
-0.076782,0.336060,-0.970703,41.015621,34.240723,3.662109
-0.073364,0.323608,-1.002319,20.507811,27.587889,-21.301268
-0.194580,-0.274170,-1.038818,20.080564,-16.784668,35.278320
-0.182129,-0.242310,-1.083252,18.188477,-20.629881,53.710934
-0.184204,-0.015015,-0.964600,14.770507,-34.240723,70.007324
-0.182617,0.051270,-0.888916,20.385740,-32.836914,60.852047
-0.176025,0.040894,-0.799072,31.982420,-12.939452,53.466793
-0.156372,0.043213,-0.994507,36.010742,-1.037598,50.659176
-0.145020,-0.072876,-1.142334,37.780762,-2.685547,44.799801
-0.143066,-0.075928,-1.107422,28.625486,-21.362303,50.964352
-0.140503,-0.025635,-1.005859,28.808592,-26.184080,54.260250
-0.139038,0.085571,-0.890869,34.667969,-26.550291,58.288570
-0.124634,0.155273,-0.927612,34.545898,-14.892577,54.565426
-0.105225,0.210327,-1.077026,29.541014,-19.592285,39.978027
-0.119263,0.113892,-0.985718,25.634764,-25.878904,34.423828
-0.106689,0.129150,-0.843628,17.089844,-23.559568,37.231445
-0.096313,0.212646,-0.888306,9.826660,-2.868652,38.757324
-0.096069,0.275635,-0.999268,7.507324,0.305176,31.677244
-0.088623,0.248047,-0.991821,5.676269,-2.441406,17.211914
-0.084839,0.228882,-1.018188,11.169433,-0.793457,7.629394
-0.088257,0.092773,-1.056274,13.854980,-3.234863,4.089355
-0.081299,0.068726,-0.999878,12.268065,-5.004883,8.117676
-0.071533,0.168091,-0.908325,7.263183,-4.821777,13.305663
-0.070312,0.187744,-0.912476,3.906250,3.356933,7.202148
-0.070068,0.207031,-0.990479,3.906250,6.408691,-3.112793
-0.072266,0.147339,-0.984741,2.929687,5.310058,-7.263183
-0.080811,0.120117,-0.979736,-0.427246,4.272461,-8.911133
-0.083496,0.132446,-1.006348,0.671387,5.798339,-6.713867
-0.089722,0.200195,-0.995850,2.563476,4.272461,-6.713867
-0.090454,0.225952,-0.889648,6.286621,7.202148,-10.192870
-0.091797,0.219849,-0.943481,14.526366,20.507811,-17.089844
-0.095947,0.168213,-0.993652,17.456055,18.798828,-23.132322
-0.096802,0.130737,-1.016479,13.183593,17.761230,-24.658201
-0.099854,0.075439,-1.032104,7.629394,14.404296,-24.169920
-0.097656,0.118286,-1.018677,0.793457,8.605957,-19.470215
-0.108521,0.224854,-0.892090,-9.033203,6.286621,-23.864744
-0.126709,0.203491,-0.845703,-9.155273,14.465331,-35.949707
-0.131836,0.182007,-0.884888,-1.647949,29.174803,-42.053219
-0.131104,0.111816,-1.050293,-3.356933,32.287598,-43.457027
-0.135376,0.033325,-1.119141,-15.441894,22.094725,-43.701168
-0.133179,0.039429,-1.000732,-18.371582,7.995605,-37.414551
-0.140137,0.081665,-0.889526,-12.634276,5.615234,-33.935547
-0.157104,0.187622,-0.818726,-11.779784,12.878417,-36.254883
-0.174927,0.109619,-1.004272,-14.465331,28.564451,-50.048824
-0.177368,0.022339,-1.086426,-15.502929,25.207518,-53.955074
-0.171753,-0.049927,-1.127075,-23.376463,12.634276,-44.372555
-0.171509,-0.030518,-1.022583,-26.489256,6.530761,-38.879395
-0.179443,0.094360,-0.871704,-20.812986,3.417969,-30.151365
-0.186890,0.150391,-0.830322,-7.080078,14.465331,-35.705566
-0.195190,0.107422,-0.921021,-6.652832,22.399900,-43.579098
-0.208008,-0.028076,-1.036011,-19.531250,26.000975,-50.292965
-0.208130,-0.111206,-1.150391,-25.268553,21.057127,-43.273922
-0.205444,-0.092651,-1.112305,-20.141600,6.591796,-30.334471
-0.206909,0.020996,-0.936768,-18.066406,3.723144,-27.526854
-0.227051,0.041748,-0.881836,-17.517090,9.216309,-30.822752
-0.236816,-0.014771,-1.004761,-13.610839,18.127441,-37.170410
-0.236816,-0.097778,-1.067505,-17.395020,16.906738,-39.428711
-0.215576,-0.207031,-1.150146,-15.563964,4.516602,-23.376463
-0.202515,-0.065796,-1.005005,-15.930175,-3.234863,-16.723633
-0.208618,-0.039673,-0.873291,-21.057127,-6.286621,-17.456055
-0.214111,-0.068115,-0.869873,-16.235352,2.929687,-21.606443
-0.221191,-0.163086,-0.962891,-14.831542,6.774902,-22.399900
-0.219360,-0.250977,-1.056274,-15.258788,6.286621,-19.042969
-0.217407,-0.340820,-1.054810,-14.709472,-2.990722,-8.117676
-0.213257,-0.305786,-1.009033,-17.089844,-10.925292,9.765625
-0.204224,-0.191772,-0.942749,-21.972654,-11.291503,13.610839
-0.200806,-0.197510,-0.947144,-32.897949,-11.657714,12.390136
-0.203857,-0.223755,-0.912964,-31.799314,-14.587401,13.671874
-0.199219,-0.239868,-0.919067,-26.733397,-8.544922,20.446775
-0.185913,-0.234131,-1.063354,-28.625486,-8.789063,23.193357
-0.199097,-0.250732,-1.020020,-30.578611,-23.864744,29.296873
-0.199463,-0.244263,-0.900269,-11.352538,-26.306150,37.841797
-0.180664,-0.204102,-0.814331,5.798339,-7.080078,46.813961
-0.177002,-0.168945,-0.873169,7.080078,-0.976562,48.034664
-0.185547,-0.193604,-1.041504,8.972168,4.760742,47.119137
-0.192139,-0.221313,-1.096069,23.132322,-5.310058,51.635738
-0.182983,-0.204834,-1.038330,31.066893,-17.089844,61.401363
-0.180176,-0.090210,-0.907837,33.691406,-20.263670,64.697266
-0.170166,-0.005005,-0.929321,34.606934,-13.671874,64.453125
-0.174438,-0.004761,-0.949951,33.020020,-10.986327,59.265133
-0.171387,-0.005859,-0.944580,30.273436,-4.089355,59.814449
-0.167603,0.024902,-1.062622,32.958984,-4.211426,58.837887
-0.162231,0.052124,-1.036133,36.315918,-13.122558,57.067867
-0.158203,0.095093,-1.010254,38.940430,-18.066406,56.701656
-0.151123,0.163574,-1.002930,41.503902,-17.639160,54.931637
-0.144653,0.230347,-1.062866,42.358395,-17.211914,48.400875
-0.146118,0.229370,-1.007324,32.226562,-24.230955,37.231445
-0.130371,0.183838,-0.920288,25.390623,-8.728027,33.569336
-0.110352,0.198853,-0.957764,24.047850,-2.502441,32.836914
-0.097900,0.225098,-1.001831,16.418457,2.319336,25.512693
-0.096924,0.173584,-1.023682,11.962890,-0.183105,15.258788
-0.088989,0.135498,-0.971191,11.596679,-2.624511,15.258788
-0.083862,0.190430,-0.924927,7.202148,-2.746582,15.624999
-0.081665,0.187134,-0.917480,3.967285,1.220703,10.192870
-0.079956,0.195679,-0.913452,4.821777,4.333496,7.751464
-0.087402,0.171387,-0.954956,10.070800,9.704590,1.892090
-0.090088,0.188110,-0.960205,7.690429,11.535644,-1.281738
-0.100098,0.212280,-0.995850,-2.014160,10.253905,-8.728027
-0.111938,0.188843,-1.034302,-3.906250,10.009766,-11.535644
-0.121948,0.159058,-1.072266,-1.525879,7.324218,-14.709472
-0.122925,0.208252,-0.961792,-0.183105,1.831055,-13.244628
-0.121460,0.235474,-0.959473,0.976562,8.605957,-15.930175
-0.121338,0.227051,-0.971436,-1.647949,10.559081,-20.324705
-0.130737,0.212036,-0.953369,-13.122558,11.169433,-29.052732
-0.135742,0.146851,-0.998901,-13.793944,15.869140,-34.545898
-0.135010,0.119751,-1.051392,-14.099120,15.686034,-37.109375
-0.138794,0.095703,-1.015259,-12.756347,9.704590,-37.231445
-0.137207,0.121216,-0.910889,-9.704590,2.868652,-35.217285
-0.137939,0.177246,-0.873657,-7.873535,9.643555,-35.705566
-0.139893,0.187012,-0.908813,-13.061522,20.019531,-45.654293
-0.157837,0.130859,-1.021484,-16.174316,19.592285,-53.405758
-0.167236,-0.036255,-1.048828,-24.597166,10.986327,-61.401363
-0.167480,-0.070068,-1.057129,-20.996092,3.967285,-50.842281
-0.179565,-0.015137,-0.900024,-11.962890,2.136230,-38.635254
-0.186523,0.147095,-0.825195,-11.108397,12.756347,-39.001465
-0.209595,0.078369,-1.018188,-17.272949,29.846189,-53.527828
-0.214111,0.006470,-1.108276,-18.188477,25.146482,-61.218258
-0.208618,-0.128296,-1.126953,-16.662598,16.906738,-59.570309
-0.203125,-0.158936,-0.940430,-16.540527,2.807617,-47.119137
-0.222290,-0.049072,-0.827881,-24.658201,10.192870,-35.217285
-0.225952,-0.037476,-0.894531,-18.859863,26.794432,-36.376953
-0.217529,-0.028687,-1.049438,-16.479492,26.916502,-38.146973
-0.223999,-0.136719,-1.093994,-20.629881,17.395020,-44.738766
-0.221313,-0.257202,-1.060791,-15.869140,5.737304,-39.794922
-0.221191,-0.252808,-0.964722,-15.380858,-2.136230,-23.315428
-0.222534,-0.161621,-0.879395,-17.089844,6.225585,-14.526366
-0.226807,-0.106689,-0.962402,-16.601562,9.826660,-14.648437
-0.227295,-0.140137,-1.015137,-13.793944,9.765625,-19.714355
-0.221680,-0.206665,-1.046875,-7.080078,5.065917,-20.812986
-0.212158,-0.329712,-1.028931,-5.920410,-5.249023,-6.225585
-0.120972,0.046143,-0.972534,-23.803709,-0.427246,-30.944822
-0.134521,0.088989,-0.855835,-20.263670,5.981445,-31.921385
-0.152100,0.137817,-0.870361,-17.639160,12.878417,-33.142090
-0.165771,0.075317,-1.022949,-18.676758,23.986814,-43.151852
-0.166626,0.007568,-1.090576,-23.071287,20.141600,-46.936031
-0.166260,-0.048096,-1.104004,-27.893064,8.300781,-40.649410
-0.176514,-0.070679,-1.000854,-28.564451,3.479004,-37.475586
-0.179077,0.014038,-0.873535,-25.817869,2.624511,-30.090330
-0.179565,0.054810,-0.909790,-22.521971,14.709472,-33.142090
-0.177490,0.010620,-0.987915,-17.150879,15.197753,-41.076656
-0.178101,-0.067749,-1.022949,-17.944336,13.732909,-41.748043
-0.190552,-0.094116,-1.033936,-17.578125,8.850098,-37.963867
-0.192871,-0.084351,-1.005493,-13.977050,4.028320,-31.249998
-0.187866,-0.022461,-0.972290,-14.587401,4.882812,-29.235838
-0.189453,-0.034424,-0.942871,-14.099120,7.690429,-31.188963
-0.189575,-0.035034,-0.917603,-17.211914,11.718749,-32.470703
-0.197510,-0.033936,-0.929443,-20.019531,17.517090,-33.935547
-0.204834,-0.090088,-1.066895,-20.996092,17.944336,-35.034180
-0.201050,-0.165894,-1.112793,-17.150879,8.911133,-32.226562
-0.198364,-0.090820,-0.967529,-10.070800,-3.906250,-21.728514
-0.198853,-0.029663,-0.863403,-7.568359,-2.075195,-17.700195
-0.207520,0.025146,-0.843994,-9.460449,6.103515,-20.385740
-0.217651,-0.050415,-0.958740,-13.427733,18.188477,-29.846189
-0.208984,-0.169922,-1.084595,-10.986327,18.310547,-33.142090
-0.202393,-0.238403,-1.109375,-10.437011,5.065917,-26.000975
-0.202881,-0.267456,-1.014526,-10.864257,-3.295898,-18.066406
-0.214355,-0.115479,-0.837036,-12.023925,-9.094238,-3.295898
-0.221436,-0.124512,-0.890991,-10.314940,3.845215,-6.225585
-0.223022,-0.188354,-0.947144,-8.911133,9.033203,-10.437011
-0.222290,-0.262085,-0.994263,-9.155273,7.507324,-8.239746
-0.216309,-0.283691,-1.019287,-11.535644,2.624511,0.305176
-0.219849,-0.277832,-0.965454,-9.399414,-4.638672,10.375976
-0.223755,-0.237793,-0.915649,-2.319336,-6.958007,20.385740
-0.222534,-0.167358,-0.881958,-0.488281,-0.122070,22.460936
-0.229370,-0.161743,-0.965454,-0.427246,2.380371,21.667479
-0.233032,-0.194092,-1.008789,4.699707,0.854492,21.667479
-0.230835,-0.250000,-1.048096,14.160155,-2.990722,26.367186
-0.231567,-0.268921,-0.978027,19.348145,-8.178711,33.630371
-0.230957,-0.082153,-0.895874,24.169920,-9.216309,46.325680
-0.231567,-0.034668,-0.959106,26.611326,-2.258301,41.931149
-0.231323,-0.031860,-0.998779,27.343748,-1.342773,36.865234
-0.229370,-0.069580,-1.107178,25.756834,-2.441406,34.851074
-0.219604,-0.173462,-1.131836,22.033689,-12.329101,36.010742
-0.213989,-0.157715,-1.064087,19.958496,-27.526854,46.325680
-0.206177,-0.083618,-0.932617,28.808592,-27.587889,51.574703
-0.194214,-0.011963,-0.940796,32.165527,-24.108885,51.452633
-0.193604,-0.018188,-0.992554,29.724119,-21.789549,46.569820
-0.192017,-0.048584,-1.005493,21.911619,-22.460936,44.311520
-0.175171,-0.094971,-1.110474,21.179197,-24.230955,46.447750
-0.161499,-0.071411,-1.133301,10.131835,-42.480465,56.091305
-0.159302,-0.023315,-1.080200,-3.417969,-59.448238,61.523434
-0.151978,0.082153,-0.932983,12.023925,-56.762691,56.518551
-0.134033,0.118042,-0.774780,23.803709,-45.715328,50.964352
-0.119019,0.055542,-0.944458,30.578611,-17.028809,41.870113
-0.122681,0.011841,-1.039063,28.198240,-10.742187,41.931149
-0.096313,0.020630,-1.128418,27.099607,-14.892577,46.691891
-0.075195,0.134155,-1.058960,24.230955,-27.221678,52.246090
-0.067993,0.158447,-0.976562,18.554687,-33.142090,46.081539
-0.058960,0.203369,-0.833130,13.061522,-23.071287,38.146973
-0.049927,0.190308,-0.798706,11.718749,-13.671874,32.714844
-0.034424,0.143188,-0.998901,9.948730,3.906250,25.146482
-0.032227,0.130859,-1.059937,10.498046,-1.159668,23.742674
-0.036987,0.189331,-0.989380,10.986327,-7.873535,25.146482
-0.040894,0.254883,-0.976807,11.962890,-5.371093,22.277830
-0.031006,0.248169,-0.999023,12.451171,-1.892090,13.671874
-0.024414,0.264160,-0.973877,6.103515,-2.075195,6.958007
-0.022217,0.221069,-0.932739,2.380371,-0.671387,2.563476
-0.019897,0.222168,-0.947021,-5.004883,4.638672,-2.258301
-0.024902,0.158936,-1.026367,-7.385253,7.507324,-8.789063
-0.026489,0.131104,-1.033203,-4.943848,2.258301,-9.948730
-0.027710,0.183594,-0.956055,-3.906250,0.183105,-8.972168
-0.037598,0.227539,-0.909546,-2.929687,4.028320,-12.695312
-0.048218,0.158325,-0.958130,-1.159668,11.535644,-21.667479
-0.051147,0.141235,-0.991333,-0.122070,15.319823,-23.376463
-0.044434,0.098389,-1.022827,0.122070,16.418457,-22.399900
-0.047607,0.083252,-1.031616,-3.356933,14.465331,-19.470215
-0.050415,0.098633,-0.997437,-4.577637,9.216309,-16.540527
-0.060791,0.160034,-0.871216,-5.737304,12.817382,-19.470215
-0.074097,0.194702,-0.870972,-9.216309,19.714355,-23.376463
-0.082031,0.158569,-1.037598,-15.991210,28.625486,-33.264160
-0.080811,0.116577,-1.091187,-14.404296,19.348145,-39.672852
-0.082886,0.043091,-1.033203,-16.601562,10.559081,-40.161129
-0.078613,0.048584,-0.948364,-18.249512,4.272461,-35.217285
-0.090332,0.060913,-0.914429,-9.399414,7.873535,-32.287598
-0.100098,0.180176,-0.803955,-19.287109,18.554687,-35.583496
-0.118774,0.156738,-0.859131,-24.536131,29.663084,-43.762203
-0.139648,0.042969,-1.086182,-25.634764,42.480465,-52.978512
-0.145020,-0.014160,-1.166260,-24.597166,28.442381,-52.185055
-0.135376,-0.064209,-1.078857,-18.920898,12.939452,-41.870113
-0.143433,-0.003174,-0.866821,-11.962890,10.620116,-37.353516
-0.178589,0.077637,-0.730225,-7.568359,20.935057,-33.447266
-0.195923,0.116211,-0.812866,-16.540527,48.461910,-44.128414
-0.213867,-0.033325,-1.200195,-17.028809,54.199215,-55.236813
-0.218506,-0.259766,-1.267334,-22.155760,27.526854,-59.509274
-0.223755,-0.280518,-1.006836,-19.409180,-2.441406,-39.733887
-0.226685,-0.218262,-0.893555,-7.568359,1.159668,-20.263670
-0.230103,-0.046997,-0.882080,-3.295898,20.019531,-16.784668
-0.222534,0.034790,-0.974243,-8.117676,26.062010,-20.996092
-0.224854,-0.103638,-1.142456,-21.423338,27.099607,-35.034180
-0.219116,-0.216919,-1.105225,-29.907225,5.615234,-33.325195
-0.206543,-0.185669,-1.035278,-26.489256,-4.821777,-19.226074
-0.199951,-0.070557,-0.911011,-21.728514,-1.647949,-14.587401
-0.214478,-0.008789,-0.908447,-20.935057,1.708984,-17.761230
-0.228149,-0.102905,-0.924805,-18.310547,6.347656,-26.855467
-0.225586,-0.136230,-0.970215,-12.695312,11.047362,-26.367186
-0.209473,-0.237061,-1.065308,-9.094238,9.460449,-24.475096
-0.207275,-0.228516,-0.994263,-9.033203,-2.075195,-12.695312
-0.216675,-0.151245,-0.920898,-11.535644,-5.676269,-4.028320
-0.218628,-0.134277,-0.932373,-10.925292,-0.122070,-5.065917
-0.220703,-0.164185,-0.963501,-8.972168,1.159668,-6.713867
-0.215088,-0.243530,-0.987915,-5.004883,1.098633,-5.798339
-0.211548,-0.239990,-0.993408,-6.103515,-2.441406,2.746582
-0.207886,-0.222900,-0.969971,-5.676269,-6.225585,10.009766
-0.207153,-0.170044,-0.904297,-2.868652,-6.164550,12.817382
-0.202881,-0.146484,-0.910522,3.173828,-1.159668,13.854980
-0.204590,-0.155396,-0.942871,3.845215,1.708984,13.488769
-0.212402,-0.177246,-0.996704,5.676269,-1.037598,17.700195
-0.217163,-0.166748,-1.030640,5.798339,-2.441406,20.568846
-0.214111,-0.172607,-1.010376,6.774902,-6.347656,25.695799
-0.208496,-0.152100,-0.968018,5.187988,-8.728027,31.494139
-0.208618,-0.114380,-0.917236,-1.403808,-4.150391,30.212400
-0.212769,-0.146118,-0.922729,-1.708984,-2.014160,29.235838
-0.212280,-0.171753,-1.014648,2.746582,0.732422,30.212400
-0.216919,-0.210571,-1.061890,8.789063,-3.417969,32.714844
-0.203369,-0.281860,-1.071777,13.793944,-9.094238,38.696289
-0.197998,-0.232910,-0.980469,20.874022,-20.141600,54.504391
-0.189331,-0.141235,-0.895630,15.624999,-24.047850,63.781734
-0.190918,-0.087036,-0.921631,9.277344,-19.958496,63.354488
-0.193115,0.034424,-1.085327,-27.587889,15.563964,-36.437988
-0.186523,0.000244,-1.065674,-33.508301,6.469726,-31.494139
-0.188232,-0.009155,-1.016357,-34.484863,3.967285,-28.198240
-0.187744,0.068237,-0.926758,-26.672361,2.929687,-21.484373
-0.187866,0.090210,-0.892212,-21.850584,10.437011,-24.353025
-0.188232,0.048096,-0.974121,-21.850584,19.531250,-28.808592
-0.184570,-0.039307,-1.085938,-19.958496,18.127441,-29.418943
-0.169800,-0.092529,-1.042236,-15.258788,7.507324,-24.536131
-0.167358,-0.077026,-1.015991,-15.197753,-0.244141,-15.747069
-0.168579,-0.019531,-0.912231,-21.423338,-1.159668,-12.023925
-0.175659,0.030640,-0.890259,-23.071287,2.929687,-13.427733
-0.175903,-0.019409,-0.988281,-17.150879,10.742187,-19.714355
-0.172852,-0.075562,-1.045166,-10.437011,8.117676,-22.033689
-0.166626,-0.193848,-1.017334,-9.704590,2.502441,-18.188477
-0.166748,-0.141479,-0.949097,-14.465331,-3.417969,-3.540039
-0.170410,-0.095581,-0.917358,-16.723633,-1.464844,2.624511
-0.170776,-0.085449,-0.917358,-13.916015,3.356933,2.319336
-0.174438,-0.113892,-0.922485,-11.596679,5.126953,1.892090
-0.178467,-0.126099,-1.002930,-9.765625,8.117676,5.554199
-0.183105,-0.134521,-1.045044,-9.643555,3.845215,11.657714
-0.185547,-0.112549,-1.019897,-12.329101,-5.371093,20.263670
-0.190674,-0.065430,-0.942139,-14.465331,-6.713867,22.033689
-0.187134,-0.053833,-0.893799,-11.047362,-1.892090,21.606443
-0.185181,-0.072144,-0.935425,-5.126953,5.737304,20.324705
-0.184204,-0.149902,-1.098999,-0.793457,-0.549316,22.155760
-0.183838,-0.247559,-1.067627,1.525879,-8.117676,24.841307
-0.181885,-0.198120,-0.895752,6.042480,-17.822266,39.978027
-0.184814,-0.133423,-0.852417,8.911133,-11.840819,50.842281
-0.191772,-0.086548,-0.893311,6.042480,-2.075195,52.551266
-0.194946,-0.017090,-1.042358,6.103515,-1.708984,52.734371
-0.202393,-0.002808,-1.151489,13.366698,-13.000487,46.203609
-0.204590,-0.051514,-1.074707,15.380858,-29.602049,45.471188
-0.200684,0.002930,-0.866943,21.118162,-17.517090,55.908199
-0.178833,0.129150,-0.903931,24.658201,-5.004883,54.748531
-0.178833,0.070068,-1.030518,22.521971,4.394531,41.992184
-0.184448,0.031128,-1.074707,27.770994,-3.662109,36.987305
-0.186035,-0.011353,-1.097290,32.104492,-9.216309,39.062500
-0.172852,0.092041,-1.027222,35.095215,-18.676758,48.645016
-0.163452,0.170044,-0.951294,25.207518,-20.080564,49.072262
-0.145264,0.204956,-0.920410,8.422852,-8.728027,35.827637
-0.134888,0.120605,-1.061768,0.061035,-7.080078,28.747557
-0.142090,0.045288,-1.094604,-4.455566,-23.071287,20.751951
-0.142822,0.081787,-1.077271,0.976562,-37.414551,25.146482
-0.129761,0.109497,-1.024292,8.361816,-39.245605,23.376463
-0.124023,0.055908,-0.774902,6.042480,-34.851074,25.207518
-0.111328,0.085327,-0.764282,2.075195,-1.892090,35.766602
-0.102173,0.167847,-1.029663,1.525879,8.789063,31.249998
-0.103394,0.172363,-1.075195,0.793457,2.197266,25.756834
-0.098145,0.123657,-1.015381,8.666992,-7.690429,16.784668
-0.093262,0.131226,-0.971558,18.615723,-8.789063,15.624999
-0.092285,0.173706,-0.925659,10.192870,-6.286621,16.052246
-0.091064,0.221313,-0.932861,5.310058,-1.403808,12.817382
-0.088867,0.184448,-1.031372,2.563476,4.760742,4.089355
-0.089966,0.182373,-1.034424,4.211426,0.366211,0.366211
-0.086548,0.200806,-0.981079,10.131835,-0.671387,-1.953125
-0.086792,0.217529,-0.908203,12.390136,0.976562,-4.638672
-0.091187,0.226440,-0.927490,6.652832,8.117676,-10.375976
-0.099243,0.236816,-0.971436,0.183105,15.136718,-15.808105
-0.105225,0.175659,-1.035645,2.685547,17.028809,-18.066406
-0.101807,0.160889,-0.994019,12.023925,14.526366,-17.028809
-0.108032,0.158813,-0.941284,19.042969,12.634276,-16.418457
-0.121948,0.157837,-0.885498,26.733397,26.000975,-13.793944
-0.120483,0.202515,-0.975220,27.893064,32.775879,-15.380858
-0.120972,0.203979,-0.994995,14.526366,28.930662,-21.057127
-0.123047,0.205566,-1.005249,0.427246,20.019531,-28.808592
-0.135254,0.176392,-1.021240,-4.394531,16.296387,-33.081055
-0.137695,0.164307,-0.924438,-13.061522,11.535644,-36.865234
-0.141235,0.166992,-0.908936,-10.314940,14.343261,-39.794922
-0.168213,0.186401,-0.921875,-21.301268,14.465331,-46.874996
-0.182373,0.139038,-0.921265,-25.939939,17.333984,-51.513668
-0.176880,0.093384,-1.056274,-25.695799,25.390623,-52.612301
-0.178223,0.058838,-1.089478,-28.259275,15.808105,-50.659176
-0.178101,0.030518,-0.999756,-31.249998,9.399414,-47.363277
-0.179932,0.097168,-0.906128,-37.719727,6.896972,-42.358395
-0.184814,0.095337,-0.885742,-35.400391,14.038085,-46.264645
-0.195923,0.083862,-0.926147,-30.212400,20.629881,-50.659176
-0.211182,-0.001587,-1.027588,-30.334471,21.484373,-53.527828
-0.208374,-0.092651,-1.055176,-35.156250,17.761230,-51.940914
-0.207520,-0.053467,-0.974731,-37.536621,10.498046,-41.442867
-0.216553,-0.004150,-0.918945,-36.499023,10.925292,-36.743164
-0.240356,0.046143,-0.890503,-34.240723,15.075683,-39.123535
-0.255127,-0.016235,-0.965820,-26.611326,23.925779,-47.790524
-0.254150,-0.139160,-1.145386,-25.756834,26.794432,-50.598141
-0.250488,-0.183105,-1.177002,-25.207518,12.023925,-42.114254
-0.240723,-0.170044,-1.050903,-23.010252,3.173828,-34.729004
-0.243530,-0.025879,-0.915161,-19.653320,-2.685547,-22.644041
-0.252197,0.006836,-0.888306,-19.409180,4.882812,-25.817869
-0.252319,-0.018799,-0.915771,-22.155760,13.854980,-33.752441
-0.247192,-0.113037,-1.035889,-18.066406,13.610839,-34.912109
-0.230591,-0.227661,-1.126099,-16.845703,8.117676,-31.982420
-0.223145,-0.208984,-0.989136,-17.883301,-8.300781,-19.287109
-0.226196,-0.158325,-0.901245,-18.920898,-11.474608,-10.742187
-0.229858,-0.116089,-0.841187,-17.883301,-6.286621,-11.230468
-0.226562,-0.172729,-0.863403,-9.521484,3.784179,-15.075683
-0.220947,-0.200928,-0.892334,-8.178711,9.765625,-14.648437
-0.214722,-0.306030,-1.037354,-11.291503,6.713867,-7.568359
-0.214600,-0.313110,-1.046753,-11.657714,-0.366211,0.305176
-0.215332,-0.183105,-0.911621,-6.164550,-12.084960,14.221190
-0.214600,-0.140747,-0.824341,4.028320,-9.582520,15.380858
-0.212646,-0.143921,-0.815063,6.042480,0.732422,14.404296
-0.215820,-0.145142,-0.924438,2.929687,5.676269,14.770507
-0.217651,-0.197144,-1.060303,-2.746582,5.859375,16.723633
-0.221558,-0.190674,-1.077271,-2.319336,-7.202148,24.658201
-0.218140,-0.154175,-0.994751,1.647949,-17.456055,29.785154
-0.222900,-0.119873,-0.919922,-0.061035,-18.249512,32.104492
-0.221680,-0.118530,-0.869141,5.615234,-15.380858,29.785154
-0.221558,-0.133301,-0.874146,9.216309,-9.338379,26.184080
-0.229980,-0.202515,-1.037964,11.230468,-6.591796,30.700682
-0.238281,-0.213745,-1.119995,15.197753,-11.901855,38.513184
-0.223511,-0.087402,-0.995605,24.108885,-20.690916,52.856441
-0.215698,-0.042725,-0.977905,26.550291,-18.981934,53.771969
-0.209351,0.000244,-0.932373,24.169920,-19.714355,46.325680
-0.210327,-0.052979,-0.944458,22.766111,-17.150879,42.602535
-0.195190,-0.153442,-1.027588,30.944822,-10.620116,42.785641
-0.190186,-0.159424,-1.074951,28.015135,-13.732909,53.588863
-0.203735,-0.058228,-1.061157,31.738279,-23.437498,59.936520
-0.199341,0.032959,-0.925903,35.278320,-24.902342,60.180660
-0.195801,0.096313,-0.928589,33.813477,-15.014647,55.908199
-0.194702,0.124512,-1.024780,31.738279,-6.286621,47.607418
-0.185425,0.082275,-1.223145,32.897949,-9.216309,41.687008
-0.174438,0.000000,-1.189087,30.883787,-30.517576,37.292480
-0.167236,0.048462,-1.084351,21.423338,-47.058102,45.471188
-0.153687,0.188721,-0.953247,18.859863,-41.076656,42.297359
-0.131714,0.234985,-0.944580,18.920898,-35.156250,36.560059
-0.118652,0.189575,-0.988647,14.465331,-26.672361,23.376463
-0.109741,0.138916,-0.978516,6.408691,-22.216795,18.371582
-0.088013,0.094849,-0.972168,3.967285,-17.822266,20.751951
-0.065796,0.167969,-0.984009,3.356933,-13.427733,25.085447
-0.234863,-0.356445,-1.036499,-6.774902,-7.812500,3.356933
-0.225342,-0.221313,-0.885010,-1.525879,-10.498046,9.826660
-0.221680,-0.167236,-0.851929,-0.549316,-3.173828,11.657714
-0.224121,-0.195068,-0.912964,-6.958007,5.737304,8.422852
-0.222900,-0.266846,-1.019409,-10.681151,3.051758,13.854980
-0.221558,-0.251465,-1.052734,-10.742187,-1.342773,18.859863
-0.223267,-0.196655,-0.980835,-2.624511,-10.498046,28.686522
-0.221558,-0.160156,-0.906616,6.530761,-12.451171,34.667969
-0.211060,-0.101440,-0.813599,9.521484,-0.488281,32.165527
-0.213745,-0.165894,-0.959595,9.338379,5.859375,28.869627
-0.224487,-0.219360,-1.077881,13.549804,2.075195,30.639647
-0.228149,-0.221069,-1.016968,18.066406,-9.094238,41.992184
-0.223022,-0.133911,-0.961182,20.996092,-6.774902,53.161617
-0.218262,-0.021973,-0.953979,22.644041,-6.713867,53.283688
-0.214111,-0.037476,-0.962158,22.155760,-6.225585,45.288082
-0.219604,-0.041138,-0.948486,22.033689,-8.117676,42.297359
-0.221680,-0.041626,-1.027832,23.681639,-5.371093,42.724606
-0.206543,-0.044922,-1.105591,26.977537,-9.826660,44.189449
-0.188477,0.016968,-0.959961,23.681639,-21.789549,47.607418
-0.185181,0.049927,-0.906006,22.705076,-17.150879,46.936031
-0.182007,0.051636,-0.810669,26.123045,-10.620116,46.264645
-0.185547,0.154175,-0.949097,31.982420,5.432128,46.020504
-0.192139,0.163574,-1.024902,30.151365,4.394531,36.315918
-0.198120,0.089355,-1.044556,27.954100,-4.760742,34.057617
-0.183716,0.143677,-0.997314,25.573729,-7.324218,36.071777
-0.165161,0.203857,-0.907837,17.944336,-8.605957,33.203125
-0.157837,0.203735,-0.859375,15.624999,-2.502441,24.536131
-0.164307,0.204590,-0.875488,16.479492,3.112793,20.507811
-0.193726,0.156006,-1.012695,14.831542,9.765625,12.573241
-0.200073,0.156372,-1.043579,10.375976,4.760742,12.023925
-0.183838,0.255981,-0.972656,9.826660,1.586914,12.268065
-0.168945,0.295898,-0.986328,6.347656,3.479004,4.150391
-0.169678,0.278564,-1.022461,1.708984,4.516602,-7.019042
-0.178589,0.244751,-0.994263,-5.187988,2.929687,-14.465331
-0.184692,0.170288,-0.987183,-7.812500,4.516602,-16.540527
-0.185913,0.167969,-1.003784,-8.178711,5.371093,-15.930175
-0.186035,0.181885,-0.994995,-3.295898,3.601074,-17.089844
-0.194946,0.178467,-0.941284,-4.089355,4.333496,-20.080564
-0.190918,0.133911,-1.008179,-1.953125,11.535644,-24.902342
-0.191772,0.119995,-1.010010,-4.943848,6.164550,-28.442381
-0.193237,0.077393,-0.953491,-9.948730,4.211426,-29.174803
-0.192871,0.063965,-0.935425,-12.023925,6.408691,-28.991697
-0.193237,0.090698,-0.938965,-10.131835,12.207030,-26.733397
-0.195312,0.124146,-0.931274,-11.962890,14.038085,-29.235838
-0.204102,0.113647,-0.957886,-13.977050,14.953612,-33.996582
-0.216187,0.035278,-1.040283,-19.592285,12.817382,-42.236324
-0.213989,-0.031250,-1.025513,-26.062010,4.882812,-42.541500
-0.210937,-0.025269,-0.988525,-30.151365,0.061035,-36.193848
-0.210571,0.062866,-0.891235,-31.738279,0.366211,-34.240723
-0.236084,0.073975,-0.888306,-30.212400,6.896972,-39.245605
-0.248779,0.059814,-0.890137,-33.020020,15.075683,-47.302242
-0.259888,-0.062988,-1.069824,-30.578611,19.653320,-52.185055
-0.247559,-0.172363,-1.109863,-26.550291,11.657714,-47.546383
-0.242554,-0.099365,-0.953979,-27.099607,-0.366211,-34.912109
-0.246704,-0.077393,-0.956299,-31.372068,2.502441,-32.470703
-0.255005,-0.069214,-0.933350,-28.015135,3.234863,-33.142090
-0.254028,-0.059692,-0.895264,-25.817869,6.286621,-34.057617
-0.254761,-0.162109,-1.012451,-25.390623,12.695312,-38.635254
-0.254150,-0.222168,-1.070679,-28.503416,7.202148,-33.325195
-0.254761,-0.262695,-1.076050,-25.878904,-5.187988,-20.751951
-0.251953,-0.208130,-0.971558,-20.935057,-8.666992,-15.624999
-0.247070,-0.167114,-0.883545,-13.488769,-7.141113,-11.901855
-0.244019,-0.172241,-0.879517,-13.427733,0.915527,-14.099120
-0.239746,-0.261475,-0.930542,-19.470215,4.394531,-13.244628
-0.226807,-0.300293,-1.009766,-20.996092,3.601074,-9.948730
-0.223755,-0.327637,-0.983887,-17.150879,-6.652832,-1.342773
-0.225342,-0.290161,-0.916626,-10.009766,-15.014647,11.413573
-0.233765,-0.189331,-0.858276,1.953125,-8.239746,13.366698
-0.236206,-0.227905,-0.901001,7.263183,-3.112793,13.183593
-0.235107,-0.220947,-0.999634,9.460449,2.258301,17.456055
-0.230347,-0.213989,-1.033813,0.000000,-2.868652,19.287109
-0.232056,-0.223877,-1.032471,-5.798339,-16.235352,20.141600
-0.232300,-0.262451,-0.887695,-1.037598,-17.150879,23.925779
-0.219971,-0.242554,-0.873169,13.366698,-5.920410,35.095215
-0.218628,-0.212769,-0.913330,11.901855,-0.305176,40.283199
-0.225464,-0.250610,-1.032349,12.573241,-5.737304,44.677731
-0.227295,-0.200684,-1.001587,17.578125,-12.145995,48.889156
-0.218506,-0.086304,-0.891235,18.432617,-15.930175,52.001949
-0.215576,-0.077148,-0.932617,18.920898,-12.023925,46.508785
-0.213257,-0.093262,-0.919678,24.108885,-11.291503,45.837399
-0.201904,-0.087036,-0.962646,27.404783,-7.629394,46.752926
-0.190552,-0.120117,-1.067261,32.409668,-6.164550,49.621578
-0.198364,-0.107910,-1.024414,28.320311,-17.028809,56.091305
-0.199829,-0.016357,-0.823975,24.291990,-16.479492,59.265133
-0.189331,0.120850,-0.963501,26.977537,0.000000,59.143063
-0.182495,0.098511,-0.987061,30.212400,-0.183105,46.752926
-0.185547,0.093384,-1.007080,27.893064,-3.112793,39.550781
-0.184448,0.054077,-1.048706,28.442381,-4.821777,37.719727
-0.171265,0.084473,-0.985596,27.221678,-10.375976,39.123535
-0.166382,0.125000,-0.902222,19.348145,-8.850098,37.902832
-0.154907,0.186523,-0.973267,16.418457,0.793457,28.747557
-0.156494,0.182007,-1.049072,16.296387,-3.845215,21.118162
-0.152222,0.100220,-0.970215,13.366698,-13.732909,9.948730
-0.150391,0.093018,-0.994141,9.338379,-9.521484,9.460449
-0.150391,0.074585,-0.969360,11.779784,-6.774902,12.390136
-0.145874,0.153198,-0.928101,12.207030,-2.685547,15.014647
-0.147339,0.218628,-0.989746,7.446289,4.272461,10.131835
-0.147949,0.197998,-0.997437,5.126953,5.065917,-0.244141
-0.144287,0.188110,-1.032227,4.821777,5.676269,-2.807617
-0.151367,0.170288,-1.053589,1.647949,3.112793,-8.178711
-0.158691,0.146606,-1.002319,-0.793457,-0.976562,-11.230468
-0.155396,0.172119,-0.975830,-4.150391,4.821777,-12.878417
-0.153076,0.166870,-1.029053,-6.164550,5.798339,-17.150879
-0.151978,0.100830,-1.038452,-12.268065,2.685547,-24.169920
-0.150391,0.120117,-1.015381,-17.761230,-1.281738,-24.902342
-0.151978,0.135986,-0.983032,-19.531250,-2.136230,-27.343748
-0.160400,0.056152,-0.909424,-30.151365,-1.892090,-35.888672
-0.163208,0.008423,-0.904907,-35.461426,5.554199,-37.719727
-0.161621,0.010986,-0.970459,-36.315918,6.774902,-33.386230
-0.163696,-0.003906,-1.021240,-33.630371,3.784179,-32.226562
-0.172974,-0.044556,-0.955566,-27.282713,-1.098633,-32.287598
-0.161255,-0.010376,-0.951172,-27.038572,6.713867,-30.273436
-0.163452,0.015747,-0.971069,-38.513184,8.361816,-32.409668
-0.183105,-0.009521,-0.952148,-43.518063,6.469726,-36.621094
-0.174561,-0.093750,-1.057739,-35.949707,4.089355,-44.433590
-0.174561,-0.075562,-0.976440,-42.785641,-10.253905,-43.029781
-0.180664,-0.078979,-0.904175,-46.691891,-6.225585,-41.870113
-0.181763,-0.093384,-0.891846,-39.611816,3.967285,-39.916992
-0.196777,-0.089355,-1.022949,-29.418943,15.136718,-40.344234
-0.199585,-0.193970,-1.004517,-27.770994,7.751464,-44.982906
-0.197876,-0.192749,-1.001099,-31.372068,6.164550,-39.306641
-0.198242,-0.157715,-1.027466,-30.090330,5.126953,-37.048340
-0.206055,-0.171753,-0.890869,-23.925779,-1.892090,-35.644531
-0.207153,-0.152710,-0.833374,-21.240232,6.713867,-33.325195
-0.210083,-0.151611,-0.949829,-19.287109,18.432617,-37.414551
-0.219604,-0.248047,-0.979126,-16.235352,16.906738,-37.170410
-0.224365,-0.202881,-0.933594,-14.221190,14.831542,-29.541014
-0.223877,-0.184937,-0.978027,-24.230955,13.610839,-31.982420
-0.192627,-0.192017,-1.018311,-15.502929,8.666992,-34.179687
-0.188721,-0.144531,-1.037598,-18.371582,-2.014160,-26.184080
-0.192871,-0.082275,-0.895264,-18.249512,-5.737304,-25.573729
-0.200073,-0.014160,-0.887451,-17.639160,1.586914,-29.052732
-0.210327,-0.037598,-0.937622,-20.263670,10.681151,-41.687008
-0.226196,-0.210571,-1.024048,-19.836426,13.061522,-45.532223
-0.219971,-0.254395,-1.065918,-15.624999,8.728027,-36.926270
-0.219116,-0.188721,-1.015991,-19.226074,-1.098633,-26.245115
-0.220093,-0.096802,-0.914795,-11.169433,-0.854492,-29.785154
-0.218628,-0.120850,-0.869629,-4.333496,3.112793,-32.897949
-0.223267,-0.153076,-0.903931,0.305176,13.732909,-35.766602
-0.221924,-0.196533,-1.048218,-7.934570,18.493652,-37.170410
-0.223511,-0.232544,-1.092041,-16.662598,4.699707,-34.667969
-0.229492,-0.205444,-0.929687,-17.883301,-3.479004,-29.724119
-0.234131,-0.101196,-0.875366,-15.075683,0.488281,-24.902342
-0.248901,-0.156372,-0.932861,-12.512206,7.690429,-33.020020
-0.257813,-0.198486,-0.931396,-13.977050,8.483887,-37.170410
-0.269287,-0.290527,-0.984497,-14.404296,10.925292,-34.301758
-0.267456,-0.376221,-1.096802,-13.183593,8.422852,-29.785154
-0.256714,-0.354248,-1.004272,-9.399414,-4.760742,-16.479492
-0.253174,-0.290894,-0.899048,-10.559081,-9.399414,-7.263183
-0.250854,-0.245239,-0.820435,-9.399414,0.549316,-8.300781
-0.247192,-0.296509,-0.924316,-7.141113,4.089355,-8.483887
-0.238159,-0.357788,-0.952148,-2.746582,2.258301,-5.859375
-0.238159,-0.411011,-0.936646,-3.479004,-2.075195,0.854492
-0.240234,-0.405640,-0.900146,-3.967285,-5.310058,12.390136
-0.240967,-0.352783,-0.848877,-2.685547,-4.150391,17.272949
-0.240967,-0.345215,-0.878906,0.061035,0.732422,23.437498
-0.241089,-0.315308,-0.898682,1.708984,3.417969,29.907225
-0.242310,-0.287598,-0.979980,6.469726,1.831055,32.958984
-0.238037,-0.263794,-1.003784,12.512206,-2.441406,34.484863
-0.223877,-0.241577,-0.872681,26.550291,-9.338379,36.254883
-0.222046,-0.248901,-0.857910,22.949217,-4.333496,36.315918
-0.233398,-0.241821,-0.836548,18.371582,-1.953125,38.330078
-0.240234,-0.096802,-0.915039,13.366698,5.676269,42.602535
-0.239502,-0.078125,-0.986572,16.601562,6.958007,36.132812
-0.237183,-0.087158,-1.009644,19.897461,3.295898,34.057617
-0.231689,-0.027832,-0.927002,18.432617,0.793457,31.799314
-0.230713,-0.132812,-1.048462,16.845703,7.385253,25.024412
-0.227051,-0.174927,-1.080933,19.897461,0.061035,27.526854
-0.227051,-0.166504,-0.995972,20.996092,-5.371093,29.846189
-0.234985,-0.205200,-0.944092,21.484373,-7.690429,31.188963
-0.233521,-0.150391,-1.013672,17.700195,-5.065917,34.362793
-0.232056,-0.123535,-1.058228,14.343261,-11.047362,29.052732
-0.244141,-0.255249,-1.107300,16.601562,-21.362303,25.939939
-0.239624,-0.320435,-1.020020,18.676758,-27.404783,32.409668
-0.210327,-0.214355,-0.848022,22.644041,-24.719236,48.706051
-0.199829,-0.171387,-0.869507,22.583006,-7.080078,54.016109
-0.205322,-0.112549,-0.972168,23.559568,-5.432128,53.710934
-0.215332,-0.019287,-1.015747,24.414061,-7.507324,52.734371
-0.200073,0.000488,-0.964844,26.733397,-11.474608,49.377438
-0.186646,0.031250,-0.945068,27.343748,-9.094238,48.400875
-0.164673,0.108154,-0.926636,22.583006,-6.713867,41.564938
-0.157593,0.119141,-0.878906,21.728514,-4.699707,36.315918
-0.148682,0.148560,-0.925049,21.301268,3.662109,29.479979
-0.146118,0.174316,-0.987305,16.662598,7.080078,22.583006
-0.134277,0.159668,-1.031738,13.061522,4.821777,17.761230
-0.125977,0.155762,-0.980713,9.094238,1.159668,11.169433
-0.130249,0.168335,-0.947144,8.483887,4.089355,5.981445
-0.139771,0.169189,-0.959717,6.958007,7.934570,2.563476
-0.149780,0.141357,-0.991211,0.915527,10.559081,-5.065917
-0.154419,0.116211,-0.994385,-3.784179,11.413573,-10.009766
-0.152466,0.092285,-1.002808,-4.760742,11.535644,-11.291503
-0.155273,0.090942,-0.984253,-14.282226,6.896972,-18.188477
-0.163452,0.041260,-0.951172,-23.071287,3.540039,-25.207518
-0.174438,0.035400,-0.976196,-20.385740,9.643555,-23.742674
-0.178467,0.066162,-1.012573,-18.676758,9.826660,-25.634764
-0.201294,0.020386,-0.948853,-19.165039,4.638672,-33.447266
-0.205811,-0.028320,-0.907227,-14.343261,12.878417,-34.484863
-0.209595,-0.027954,-1.041016,-16.906738,20.080564,-35.949707
-0.214233,-0.091553,-1.129272,-19.775391,12.207030,-38.879395
-0.224243,-0.065796,-0.890625,-22.033689,-9.094238,-37.109375
-0.227783,-0.066895,-0.849854,-17.517090,5.615234,-37.597656
-0.220825,-0.022827,-0.948608,-18.310547,17.822266,-41.076656
-0.231079,-0.143433,-1.025635,-17.761230,18.554687,-43.395992
-0.222046,-0.135864,-1.023804,-20.141600,12.634276,-36.560059
-0.217773,-0.073975,-1.007690,-25.817869,3.112793,-33.752441
-0.221069,-0.076172,-0.926880,-18.432617,-4.211426,-35.278320
-0.220825,0.018066,-0.846802,-15.991210,0.366211,-35.766602
-0.228149,-0.067383,-0.990601,-12.756347,10.864257,-46.874996
-0.242065,-0.163818,-0.997314,-12.573241,4.821777,-49.987789
-0.241211,-0.168579,-0.975952,-13.549804,-0.061035,-44.372555
-0.239380,-0.185547,-0.942139,-12.817382,-0.610352,-41.687008
-0.242798,-0.111084,-0.886353,-6.774902,-1.037598,-33.691406
-0.246826,-0.067383,-0.853882,-8.483887,3.417969,-34.851074
-0.259766,-0.088257,-0.883911,-18.066406,13.549804,-42.968746
-0.272827,-0.165161,-1.011475,-22.155760,14.892577,-46.569820
-0.268555,-0.281006,-1.019653,-21.423338,10.131835,-46.020504
-0.262695,-0.277710,-0.993164,-18.005371,3.967285,-35.034180
-0.271362,-0.226318,-0.961670,-18.066406,1.708984,-31.555174
-0.292847,-0.197388,-0.803711,-18.737793,-1.708984,-28.381346
-0.291748,-0.183838,-0.819458,-18.554687,13.000487,-28.625486
-0.290283,-0.198608,-1.024170,-21.240232,14.770507,-34.729004
-0.294922,-0.292847,-1.074707,-19.775391,9.033203,-35.766602
-0.300171,-0.423584,-0.990112,-11.901855,-2.990722,-30.456541
-0.300415,-0.434692,-0.945190,-15.686034,-6.530761,-13.671874
-0.297607,-0.302002,-0.877686,-16.235352,-3.051758,-4.394531
-0.290283,-0.269287,-0.894287,-13.183593,0.732422,-4.821777
-0.282959,-0.312134,-0.952026,-7.019042,3.051758,-6.713867
-0.274536,-0.349121,-0.984375,-4.760742,-1.403808,-4.638672
-0.264648,-0.422241,-0.946777,-3.784179,-9.460449,6.774902
-0.260376,-0.343262,-0.872681,-3.234863,-10.009766,13.671874
-0.261475,-0.277222,-0.836304,2.441406,-7.446289,20.263670
-0.262207,-0.233276,-0.826050,4.150391,-1.586914,21.118162
-0.267334,-0.199341,-0.927734,2.868652,2.075195,18.554687
-0.272949,-0.315308,-1.042114,5.615234,0.732422,15.380858
-0.263550,-0.267822,-1.007446,11.047362,-9.765625,26.123045
-0.264526,-0.246094,-0.946411,11.596679,-14.526366,32.836914
-0.260864,-0.183350,-0.886719,12.207030,-11.718749,34.729004
-0.255615,-0.146606,-0.899292,11.962890,-4.882812,31.860350
-0.251343,-0.198120,-0.973755,8.666992,-3.601074,24.902342
-0.250732,-0.213501,-1.017456,8.605957,-9.582520,24.963377
-0.257690,-0.233521,-1.022949,7.934570,-14.343261,26.794432
-0.251831,-0.151367,-0.861938,4.821777,-16.113281,35.705566
-0.241821,-0.074829,-0.904663,10.620116,0.000000,38.269043
-0.228394,-0.104370,-1.014160,16.540527,-3.906250,28.930662
-0.220093,-0.184937,-0.945312,16.479492,-7.812500,27.465818
-0.218384,-0.286011,-0.960327,15.686034,-6.530761,28.259275
-0.213989,-0.300537,-0.973511,22.033689,-9.155273,40.832516
-0.202881,-0.167114,-0.878174,21.667479,-11.718749,46.630856
-0.199829,-0.072021,-0.863281,20.202635,-7.446289,45.410152
-0.197266,-0.068848,-0.897827,29.907225,0.366211,37.414551
-0.197876,-0.134521,-0.983032,37.170410,-0.061035,32.409668
-0.186157,-0.173340,-1.012085,38.330078,-3.540039,33.386230
-0.171631,-0.136353,-0.938354,35.827637,-10.314940,36.682129
-0.169312,-0.136841,-0.941528,31.738279,-13.000487,36.926270
-0.177856,-0.080200,-0.870117,23.132322,-14.465331,40.893551
-0.182739,0.032837,-0.868652,19.348145,-7.873535,40.832516
-0.259155,-0.185181,-0.992065,-12.634276,16.357422,-18.249512
-0.259277,-0.320923,-1.102539,-9.521484,0.488281,-9.765625
-0.261963,-0.290283,-0.935425,-10.375976,-6.530761,-2.929687
-0.269165,-0.252075,-0.872070,-11.474608,-5.554199,5.493164
-0.268677,-0.244873,-0.857178,-1.708984,1.159668,10.437011
-0.262573,-0.257813,-0.925659,3.417969,5.737304,15.502929
-0.266846,-0.241089,-1.034058,3.173828,3.601074,19.042969
-0.276855,-0.160400,-1.017578,-1.403808,-4.272461,25.451658
-0.283325,-0.164673,-1.013184,-2.197266,-7.995605,26.489256
-0.284912,-0.161621,-0.982178,-0.366211,-9.582520,29.235838
-0.275513,-0.072510,-0.941895,4.516602,-9.765625,32.531738
-0.271973,-0.106323,-0.908081,7.934570,-6.958007,24.841307
-0.257690,-0.216431,-0.983398,5.920410,-3.112793,26.611326
-0.257080,-0.272095,-1.028076,6.774902,-7.324218,30.639647
-0.242554,-0.202881,-0.973022,8.728027,-14.892577,44.677731
-0.239136,-0.130127,-0.938599,12.268065,-17.089844,51.452633
-0.236694,-0.043335,-0.862183,12.695312,-15.930175,49.133297
-0.248169,-0.030396,-0.864624,2.746582,-7.629394,40.222164
-0.249756,-0.059814,-0.947266,8.056641,2.929687,35.583496
-0.239502,-0.131836,-1.072144,20.935057,-6.164550,40.161129
-0.223511,-0.124634,-1.048828,23.986814,-14.587401,44.494625
-0.223633,-0.077637,-0.852417,19.348145,-23.742674,51.696774
-0.217651,0.004517,-0.861816,26.428221,-11.291503,55.297848
-0.214111,0.080933,-0.871216,37.109375,-8.789063,43.579098
-0.200317,0.035522,-0.983521,35.583496,-6.042480,39.123535
-0.207031,-0.029297,-0.968262,29.418943,-9.094238,34.973145
-0.203247,-0.027466,-0.904053,17.456055,-3.723144,42.907711
-0.193237,0.136719,-1.036133,13.366698,1.403808,43.212887
-0.189331,0.163208,-1.023682,17.944336,-4.943848,36.499023
-0.182007,0.138550,-0.870728,26.306150,-9.765625,26.245115
-0.180054,0.147339,-0.907471,22.338865,1.953125,20.568846
-0.178711,0.118408,-1.012939,6.896972,3.845215,13.977050
-0.181885,0.099487,-1.054565,0.793457,0.732422,11.840819
-0.186157,0.109375,-0.972534,-0.305176,-6.408691,11.047362
-0.184570,0.151489,-0.942993,5.554199,-1.647949,11.535644
-0.178101,0.228149,-0.956055,8.178711,2.441406,8.850098
-0.177979,0.203613,-1.037598,4.943848,6.591796,-1.159668
-0.178467,0.172974,-1.041260,-0.610352,3.112793,-7.690429
-0.175049,0.121460,-1.035645,-0.732422,1.098633,-7.568359
-0.182983,0.166016,-0.988770,-1.586914,-0.671387,-7.751464
-0.193970,0.181030,-0.911499,-7.873535,1.342773,-14.038085
-0.193970,0.169556,-0.931152,-15.319823,13.061522,-21.789549
-0.192993,0.087769,-1.028198,-19.897461,10.864257,-28.503416
-0.184937,0.041748,-0.987061,-24.780272,6.164550,-29.113768
-0.184570,-0.020874,-0.924438,-31.311033,5.004883,-30.090330
-0.189087,-0.005249,-0.963135,-30.761717,7.507324,-25.512693
-0.202759,0.018555,-0.946777,-24.902342,3.601074,-26.184080
-0.206909,0.002319,-0.911743,-21.179197,5.798339,-27.099607
-0.209839,-0.019409,-0.972168,-19.042969,11.901855,-30.395506
-0.208252,-0.034668,-0.989014,-27.648924,11.535644,-35.400391
-0.219604,-0.106079,-1.012329,-39.978027,4.943848,-34.118652
-0.231567,-0.116455,-0.933594,-38.269043,2.014160,-29.785154
-0.217896,-0.009399,-0.909912,-31.677244,8.300781,-22.521971
-0.215210,-0.005005,-0.947510,-37.963867,12.878417,-30.700682
-0.227051,-0.051270,-0.977051,-46.203609,8.361816,-38.818359
-0.241699,-0.103271,-0.981079,-42.541500,7.751464,-39.672852
-0.244385,-0.118042,-0.941895,-32.165527,5.737304,-36.621094
-0.251587,-0.152222,-0.938843,-29.235838,5.920410,-33.691406
-0.273071,-0.193970,-0.945557,-25.390623,9.033203,-27.343748
-0.268188,-0.119141,-0.961670,-21.728514,10.681151,-25.146482
-0.267578,-0.108032,-1.026855,-18.798828,8.850098,-29.907225
-0.270630,-0.170776,-1.033691,-6.835937,2.197266,-39.489746
-0.261353,-0.279663,-0.995483,0.732422,-5.126953,-31.616209
-0.254883,-0.226440,-0.860474,3.967285,-6.652832,-24.902342
-0.259277,-0.126343,-0.820190,3.845215,2.563476,-17.089844
-0.256836,-0.092041,-0.914673,-2.624511,15.502929,-20.812986
-0.258911,-0.063232,-0.989258,-6.774902,12.329101,-25.817869
-0.273926,-0.197510,-1.008179,-6.713867,4.821777,-36.010742
-0.278687,-0.303345,-0.994873,0.915527,0.488281,-30.334471
-0.279907,-0.265137,-0.938721,7.507324,-3.723144,-13.366698
-0.283813,-0.124878,-0.874634,8.239746,-0.976562,-10.131835
-0.279541,-0.114014,-0.824829,8.300781,10.498046,-15.686034
-0.278442,-0.147339,-1.049316,1.953125,22.583006,-24.291990
-0.285278,-0.223145,-1.070801,-5.981445,5.676269,-31.249998
-0.296509,-0.402100,-1.000244,-9.582520,-0.122070,-27.587889
-0.301514,-0.329590,-0.950562,-9.643555,-2.990722,-7.263183
-0.291382,-0.211670,-0.911865,-4.516602,-3.234863,2.807617
-0.284668,-0.203979,-0.905884,-7.812500,-1.525879,-0.854492
-0.276733,-0.268311,-0.917725,-9.094238,-1.037598,-1.403808
-0.274414,-0.322510,-0.936646,-5.737304,-1.708984,1.892090
-0.276855,-0.310181,-0.931030,-0.366211,-3.479004,11.718749
-0.282593,-0.278198,-0.925415,-1.464844,-4.760742,19.531250
-0.289795,-0.221558,-0.903198,-2.685547,-2.014160,20.751951
-0.282349,-0.207031,-0.951416,-3.356933,-0.244141,20.263670
-0.288696,-0.234985,-0.994873,-4.882812,-1.708984,18.737793
-0.287109,-0.267944,-1.005981,1.586914,-7.141113,22.705076
-0.288574,-0.254028,-0.977051,5.920410,-13.183593,29.052732
-0.289795,-0.255737,-0.948608,7.385253,-13.549804,30.883787
-0.278564,-0.220337,-0.925781,13.488769,-12.451171,35.827637
-0.269287,-0.206543,-0.921143,18.920898,-10.192870,36.437988
-0.269165,-0.226685,-0.908569,17.028809,-9.216309,35.827637
-0.279419,-0.217773,-0.970703,9.887695,-4.638672,39.611816
-0.269165,-0.155029,-0.971802,6.713867,-5.126953,45.776363
-0.261719,-0.105103,-0.968994,3.417969,-5.554199,44.799801
-0.249146,-0.124268,-0.925781,9.277344,-5.859375,41.809078
-0.224365,-0.140869,-0.917847,24.475096,-5.310058,40.649410
-0.221313,-0.187134,-0.973633,28.442381,-6.652832,37.414551
-0.219604,-0.247192,-1.014526,24.536131,-17.456055,44.067379
-0.216064,-0.158691,-0.919434,19.531250,-23.559568,47.241207
-0.215332,-0.058838,-0.789917,13.854980,-24.780272,49.011227
-0.185181,0.004517,-0.856689,25.451658,-6.225585,46.691891
-0.175293,-0.015381,-0.939575,37.963867,4.333496,40.161129
-0.179565,-0.055054,-0.978149,37.292480,1.770019,38.269043
-0.185669,-0.003784,-0.968750,21.728514,-1.586914,36.926270
-0.190552,0.002563,-0.999268,11.596679,-2.563476,33.081055
-0.190674,0.066040,-1.036255,10.925292,-12.390136,28.869627
-0.186646,0.089600,-0.965210,12.878417,-12.756347,25.756834
-0.170654,0.091797,-0.972778,17.395020,-3.295898,22.766111
-0.162354,0.089478,-1.008179,4.150391,-1.892090,15.380858
-0.174927,0.032837,-0.970093,-4.089355,-5.065917,10.986327
-0.188843,0.015625,-0.920532,-12.878417,-6.774902,8.666992
-0.195068,0.066284,-0.958496,-12.023925,0.671387,10.681151
-0.194336,0.079712,-1.009644,-1.464844,6.713867,10.437011
-0.188354,0.130127,-0.995483,1.586914,3.784179,8.850098
-0.186401,0.156006,-0.944702,-4.638672,1.464844,1.586914
-0.187866,0.128784,-0.990112,-9.765625,7.080078,-6.835937
-0.180054,0.077759,-1.039307,-11.779784,6.835937,-8.972168
-0.173340,0.089722,-1.043579,-13.061522,5.920410,-10.498046
-0.180908,0.056763,-0.959106,-14.099120,4.272461,-14.526366
-0.191528,0.036377,-0.935669,-13.916015,16.174316,-17.211914
-0.200562,-0.000854,-1.052490,-3.845215,10.253905,-16.235352
-0.205200,-0.008789,-1.022217,-2.136230,6.652832,-17.028809
-0.209229,-0.040039,-0.987549,-5.310058,2.380371,-22.155760
-0.210937,-0.051270,-0.892334,-5.432128,0.000000,-25.207518
-0.209961,-0.025024,-0.878784,-9.826660,12.084960,-28.381346
-0.228882,-0.074585,-0.953613,-7.934570,13.793944,-30.944822
-0.236206,-0.090210,-1.058350,0.366211,15.380858,-30.639647
-0.243042,-0.153320,-1.110352,7.324218,9.094238,-29.846189
-0.180786,0.024048,-0.948242,-23.864744,29.479979,-19.470215
-0.191406,0.031982,-1.098511,-27.770994,20.385740,-33.081055
-0.209473,-0.076904,-1.006592,-24.841307,6.835937,-35.095215
-0.222290,-0.098145,-0.904907,-35.156250,4.089355,-32.470703
-0.224731,-0.083618,-0.982178,-38.757324,17.028809,-29.052732
-0.221436,-0.069580,-1.009277,-23.315428,11.962890,-29.357908
-0.232666,-0.106812,-0.958374,-17.944336,7.690429,-30.944822
-0.235474,-0.135376,-0.875977,-16.662598,4.760742,-28.930662
-0.232666,-0.110596,-0.945190,-20.263670,16.296387,-26.000975
-0.231079,-0.169189,-1.100342,-19.958496,9.826660,-29.296873
-0.214478,-0.176147,-0.999023,-22.827147,1.647949,-26.794432
-0.221069,-0.087646,-0.898193,-27.893064,-4.577637,-25.268553
-0.235840,-0.118286,-0.852539,-19.165039,-1.708984,-33.142090
-0.244873,-0.128052,-0.843140,-7.019042,8.850098,-31.921385
-0.227539,-0.150879,-0.965698,-2.075195,14.160155,-34.545898
-0.242554,-0.287476,-1.056274,-10.314940,11.291503,-38.208008
-0.242432,-0.302856,-1.009521,-16.662598,3.479004,-27.526854
-0.244995,-0.161377,-0.885620,-16.418457,2.624511,-21.789549
-0.258179,-0.073608,-0.807373,-17.211914,4.333496,-24.169920
-0.273682,-0.112915,-0.975586,-12.329101,15.869140,-34.179687
-0.277466,-0.167114,-1.095947,-5.432128,11.779784,-42.663570
-0.266235,-0.323364,-1.056763,-6.164550,1.464844,-42.846676
-0.260986,-0.372803,-0.900879,-22.460936,-8.117676,-32.897949
-0.267090,-0.305542,-0.886475,-32.653809,-3.234863,-20.568846
-0.269897,-0.264648,-0.873779,-24.291990,0.488281,-18.005371
-0.276733,-0.329468,-0.931885,-17.578125,2.502441,-20.874022
-0.269897,-0.447632,-1.005127,-6.042480,0.244141,-18.676758
-0.270264,-0.460693,-0.991577,-7.934570,-9.277344,-6.408691
-0.263306,-0.431885,-0.891724,-13.244628,-11.047362,5.249023
-0.267334,-0.343384,-0.860352,-11.230468,-9.521484,7.995605
-0.264282,-0.301758,-0.793457,-4.577637,-4.577637,10.131835
-0.257080,-0.308960,-0.861084,0.366211,6.652832,9.887695
-0.255005,-0.362183,-1.013672,3.417969,0.366211,14.526366
-0.257324,-0.347412,-0.989258,4.699707,-5.554199,18.493652
-0.255005,-0.334961,-0.927124,10.681151,-11.169433,27.160643
-0.251343,-0.262817,-0.903687,12.939452,-12.451171,35.339355
-0.241943,-0.204956,-0.840088,12.573241,-5.798339,27.465818
-0.244629,-0.304077,-0.922607,13.244628,-1.464844,24.841307
-0.250244,-0.349609,-0.961914,16.418457,-2.502441,28.747557
-0.255737,-0.342285,-0.943848,19.287109,-6.286621,40.161129
-0.254639,-0.238281,-0.927734,21.118162,-5.310058,47.058102
-0.240845,-0.048340,-1.006226,23.376463,-3.906250,53.344723
-0.225830,-0.084717,-0.958374,25.268553,-11.108397,40.344234
-0.213867,-0.134521,-0.990601,28.442381,-14.770507,31.005857
-0.207642,-0.207886,-0.954346,28.869627,-20.324705,29.724119
-0.215210,-0.250977,-0.836792,31.555174,-20.324705,34.423828
-0.203491,-0.210937,-0.849365,34.423828,-4.211426,47.790524
-0.196533,-0.066284,-1.014282,32.653809,-4.638672,46.752926
-0.198120,-0.062866,-0.934326,27.893064,-8.850098,42.053219
-0.198120,-0.085693,-0.937134,24.169920,-4.943848,36.376953
-0.195435,-0.119751,-0.994873,31.555174,0.427246,35.339355
-0.181030,-0.104614,-1.027954,35.156250,-2.258301,37.658691
-0.179932,-0.033936,-0.941528,38.208008,-10.437011,39.123535
-0.170532,-0.013794,-0.909668,30.212400,-7.995605,35.217285
-0.171021,-0.010864,-0.931641,20.874022,-1.708984,31.555174
-0.169922,0.013306,-1.006470,20.996092,-0.854492,30.212400
-0.168457,0.018188,-1.067017,25.695799,-7.690429,24.475096
-0.161987,0.019409,-0.976685,30.761717,-21.423338,19.531250
-0.161011,0.039185,-0.913330,27.221678,-19.042969,18.005371
-0.159302,0.075928,-0.912720,11.169433,-6.469726,13.244628
-0.160400,0.036987,-1.024048,2.746582,-3.051758,12.329101
-0.148804,0.124756,-1.043091,-7.812500,-1.281738,15.869140
-0.143677,0.137817,-1.030029,-8.117676,-1.037598,9.643555
-0.137207,0.065308,-0.970459,-7.019042,-1.586914,5.432128
-0.136963,0.023682,-0.964478,-8.789063,0.488281,2.929687
-0.130493,0.066528,-0.962524,-12.207030,1.831055,2.807617
-0.131226,0.079590,-0.955322,-19.287109,2.624511,-3.295898
-0.135498,0.054565,-0.956421,-27.526854,6.042480,-10.070800
-0.146851,0.026489,-1.003906,-26.733397,8.056641,-11.657714
-0.157715,0.002808,-1.046875,-21.972654,9.338379,-14.221190
-0.163574,0.017822,-0.990356,-23.803709,8.422852,-16.418457
-0.175903,-0.035156,-1.013672,-21.240232,16.845703,-19.165039
-0.174683,-0.041504,-1.077759,-5.981445,14.221190,-15.441894
-0.174927,-0.006592,-0.981812,-3.173828,5.432128,-13.610839
-0.175293,0.007813,-0.949951,-10.192870,11.779784,-19.958496
-0.172241,-0.013672,-1.010132,-9.216309,11.169433,-23.376463
-0.169067,-0.074829,-0.944214,-6.896972,5.615234,-28.015135
-0.172485,-0.081909,-0.924316,-14.160155,8.850098,-27.709959
-0.194580,-0.089355,-0.919800,-12.695312,16.174316,-24.536131
-0.207886,-0.062866,-0.960083,-6.652832,20.629881,-21.545408
-0.213745,-0.000366,-1.027100,1.159668,24.658201,-20.080564
-0.204834,0.015625,-1.050049,-2.502441,13.488769,-30.883787
-0.211792,-0.052856,-0.963501,-4.211426,7.324218,-37.475586
-0.224854,-0.131592,-0.871582,-10.803222,8.544922,-40.466305
-0.239746,-0.125122,-0.928955,-12.817382,22.155760,-33.996582
-0.245483,-0.119751,-0.978271,-6.896972,30.456541,-29.479979
-0.247925,-0.079712,-1.072510,-2.929687,21.240232,-30.761717
-0.257080,-0.106079,-0.988770,-5.065917,12.023925,-33.874512
-0.268677,-0.135132,-0.917114,-14.160155,6.225585,-37.048340
-0.275635,-0.140625,-0.941650,-14.953612,10.803222,-35.827637
-0.283813,-0.113281,-0.943848,-12.878417,12.695312,-35.461426
-0.282715,-0.110962,-1.045166,-10.986327,12.878417,-37.231445
-0.290649,-0.200439,-1.006104,-2.685547,3.051758,-40.100098
-0.282959,-0.212646,-0.958496,1.953125,0.854492,-32.287598
-0.272949,-0.151978,-0.954224,1.342773,2.075195,-28.564451
-0.262207,-0.045898,-0.878052,1.586914,1.586914,-24.414061
-0.256470,-0.005737,-0.883667,-5.676269,5.310058,-32.653809
-0.272705,-0.097656,-0.906128,-19.653320,9.155273,-45.349117
-0.273315,-0.300903,-1.044434,-22.521971,8.666992,-44.860836
-0.270874,-0.295410,-1.031128,-23.803709,-2.441406,-28.137205
-0.272583,-0.230225,-0.963135,-22.033689,-11.291503,-16.906738
-0.283203,-0.135376,-0.772217,-20.568846,-1.770019,-18.493652
-0.291504,-0.163452,-0.863892,-21.362303,7.019042,-22.155760
-0.290039,-0.304443,-1.014404,-25.634764,11.962890,-28.991697
-0.287720,-0.420654,-1.061157,-22.827147,1.708984,-23.376463
-0.282104,-0.500122,-1.013428,-13.977050,-12.878417,1.525879
-0.292236,-0.312256,-0.854248,-8.544922,-16.418457,10.742187
-0.289063,-0.205688,-0.790894,1.098633,-9.521484,13.427733
-0.282715,-0.201050,-0.837769,2.868652,1.586914,7.263183
-0.270020,-0.283203,-0.936035,-0.244141,1.586914,6.591796
-0.256226,-0.314209,-1.012085,-2.258301,-0.549316,10.131835
-0.270630,-0.309814,-1.018677,-5.493164,-9.277344,18.981934
-0.272095,-0.185181,-0.918091,2.624511,-16.662598,30.944822
-0.269165,-0.107056,-0.847900,9.033203,-13.854980,31.372068
-0.263306,-0.116821,-0.906128,8.666992,-9.033203,25.085447
-0.258911,-0.252197,-0.986084,3.723144,-9.338379,16.540527
-0.249512,-0.349365,-1.096558,-0.427246,-19.775391,19.042969
-0.246216,-0.365601,-1.052734,3.173828,-34.179687,33.691406
-0.240479,-0.224731,-0.868042,6.652832,-34.118652,42.724606
-0.240967,-0.062012,-0.853149,10.070800,-21.911619,46.874996
-0.243164,-0.065796,-0.846802,19.226074,-12.939452,36.804199
-0.230347,-0.101074,-0.845337,23.620604,1.220703,34.423828
-0.209106,-0.107300,-1.057007,22.277830,5.065917,32.836914
-0.202148,-0.176025,-1.134155,22.033689,-5.249023,29.479979
-0.193726,-0.194946,-1.083130,18.554687,-24.597166,32.836914
-0.187378,-0.110474,-0.844727,12.817382,-24.597166,37.841797
-0.187012,-0.060303,-0.764160,15.930175,-12.268065,37.658691
-0.175293,-0.039673,-0.950684,22.827147,9.643555,33.935547
-0.266235,-0.150635,-0.899048,-14.526366,8.972168,-28.564451
-0.260498,-0.287720,-1.038208,-16.296387,8.300781,-28.442381
-0.254883,-0.403442,-1.024048,-17.333984,-2.380371,-19.531250
-0.254272,-0.322632,-0.900024,-19.836426,-11.169433,-2.380371
-0.258667,-0.268311,-0.867310,-16.540527,-6.469726,5.554199
-0.260376,-0.202881,-0.866211,-13.122558,-2.502441,6.103515
-0.248901,-0.241089,-0.934814,-7.934570,2.502441,3.601074
-0.243042,-0.326538,-0.991455,-8.422852,0.183105,4.638672
-0.246704,-0.349731,-1.018799,-7.629394,-7.385253,16.235352
-0.262207,-0.253052,-0.971436,-6.469726,-12.878417,23.925779
-0.251465,-0.098511,-0.831787,-2.685547,-13.427733,31.249998
-0.247559,-0.072632,-0.890869,-1.037598,-0.671387,23.193357
-0.239990,-0.194946,-0.969482,3.784179,-2.441406,18.615723
-0.240845,-0.260620,-1.014893,7.141113,-4.455566,20.751951
-0.229248,-0.332397,-1.102905,13.244628,-10.620116,28.564451
-0.231812,-0.278198,-1.065186,9.216309,-31.494139,41.870113
-0.232910,-0.140991,-0.824707,5.737304,-36.560059,44.738766
-0.220947,-0.046021,-0.753052,10.314940,-19.042969,46.020504
-0.208862,-0.166016,-0.967773,27.038572,3.784179,37.963867
-0.207275,-0.244019,-1.038452,26.489256,-1.586914,39.611816
-0.208252,-0.285156,-1.130737,28.076170,-7.934570,46.142574
-0.207031,-0.173340,-0.989990,36.071777,-24.780272,62.438961
-0.186157,0.078979,-0.824951,34.790039,-25.817869,70.434570
-0.180908,0.117310,-0.869751,31.066893,-11.169433,54.077145
-0.185303,0.021118,-0.991089,32.348633,-9.094238,44.494625
-0.169067,-0.095337,-1.053711,32.287598,-11.169433,36.193848
-0.167480,-0.136841,-1.091797,21.606443,-19.348145,39.367676
-0.160889,-0.108276,-1.004150,17.639160,-26.672361,44.982906
-0.151978,0.146484,-0.758057,14.709472,-33.874512,53.039547
-0.139038,0.197388,-0.738647,22.705076,-10.070800,37.353516
-0.122070,0.083862,-0.959351,28.686522,0.122070,19.714355
-0.126953,-0.008179,-1.062378,26.977537,-4.516602,16.235352
-0.121582,-0.036499,-1.049927,18.615723,-14.038085,18.920898
-0.120117,0.001343,-1.028320,8.666992,-18.066406,27.343748
-0.115845,0.140015,-0.907593,5.432128,-17.822266,29.052732
-0.114624,0.207397,-0.832642,12.390136,-5.371093,22.583006
-0.117188,0.183594,-0.888550,17.456055,14.648437,9.643555
-0.129517,0.082642,-1.114502,12.390136,13.732909,2.746582
-0.134033,0.044678,-1.136597,10.131835,5.859375,3.662109
-0.129639,0.103516,-1.075562,9.704590,-4.760742,7.141113
-0.122681,0.179077,-0.997314,12.084960,-3.356933,-1.953125
-0.128296,0.101563,-0.922729,12.207030,-0.915527,-6.042480
-0.137695,0.096924,-0.981812,6.958007,9.460449,-8.056641
-0.138184,0.087769,-1.042725,-0.732422,14.099120,-10.498046
-0.132202,0.045044,-1.090942,-2.319336,12.878417,-10.375976
-0.127075,0.090454,-1.050171,-1.892090,7.019042,-6.896972
-0.130371,0.150879,-0.935059,-0.122070,0.976562,-10.681151
-0.138428,0.154663,-0.901245,-3.967285,5.859375,-21.179197
-0.143066,0.077759,-0.929565,-4.150391,11.474608,-24.414061
-0.135376,0.055298,-1.059204,-2.685547,18.249512,-24.658201
-0.132568,-0.002808,-1.050415,-13.793944,7.385253,-29.235838
-0.137695,-0.037842,-1.004639,-18.981934,-0.976562,-26.428221
-0.149170,0.016602,-0.866577,-15.380858,-0.427246,-21.301268
-0.151489,0.123169,-0.895386,-8.483887,10.192870,-19.226074
-0.153442,0.129761,-0.949463,-12.390136,16.723633,-31.799314
-0.157227,0.009644,-1.030640,-13.427733,14.160155,-42.053219
-0.166504,-0.145142,-1.011963,-13.427733,8.666992,-32.897949
-0.160767,-0.086426,-1.002441,-9.155273,6.591796,-23.376463
-0.161499,0.104614,-0.929932,-6.103515,4.638672,-14.770507
-0.178223,0.118286,-0.863892,-18.188477,9.033203,-29.357908
-0.208740,0.043823,-0.910645,-21.362303,17.517090,-35.461426
-0.204956,-0.056641,-1.125854,-19.104004,26.550291,-40.649410
-0.207397,-0.159424,-1.077393,-19.531250,12.634276,-37.719727
-0.203003,-0.134033,-0.966431,-19.714355,3.479004,-23.559568
-0.202026,-0.002930,-0.847900,-17.395020,7.019042,-21.057127
-0.222168,-0.012451,-0.900757,-11.413573,18.676758,-29.602049
-0.223877,-0.004395,-0.985718,-5.310058,26.550291,-38.085937
-0.223755,-0.154785,-1.191772,2.197266,14.221190,-43.762203
-0.223389,-0.243652,-1.067993,-2.685547,2.014160,-36.437988
-0.230713,-0.057739,-0.842285,-9.826660,-6.958007,-18.798828
-0.234375,0.013916,-0.837280,-1.403808,6.835937,-21.301268
-0.231689,0.006958,-0.980469,8.117676,14.038085,-32.531738
-0.226929,-0.109375,-1.069702,8.300781,12.329101,-36.682129
-0.222412,-0.232544,-1.037231,-3.295898,2.807617,-35.339355
-0.221313,-0.246338,-0.973022,-13.183593,-4.699707,-21.911619
-0.215210,-0.143188,-0.905884,-11.718749,-1.342773,-11.474608
-0.218262,-0.035156,-0.886475,-10.742187,1.098633,-11.901855
-0.225708,-0.108643,-0.916260,-7.324218,6.958007,-20.202635
-0.224609,-0.179077,-0.987183,-6.774902,9.338379,-20.935057
-0.218384,-0.259888,-1.070313,-11.901855,-1.098633,-9.277344
-0.221313,-0.183716,-0.953125,-14.587401,-5.615234,-3.173828
-0.232666,-0.130005,-0.905762,-15.319823,-3.662109,0.366211
-0.235962,-0.162598,-0.922974,-10.131835,1.159668,-1.342773
-0.229492,-0.240723,-0.972656,-6.591796,0.061035,3.662109
-0.220947,-0.239746,-1.001587,-8.666992,-1.953125,8.239746
-0.226562,-0.206177,-1.014404,-15.380858,-5.981445,13.977050
-0.234131,-0.228882,-0.965576,-6.896972,-12.145995,18.493652
-0.229370,-0.163574,-0.883301,-2.197266,-6.896972,24.414061
-0.225220,-0.159668,-0.931885,-1.037598,-4.455566,23.803709
-0.217041,-0.228516,-0.967163,6.774902,-2.685547,25.512693
-0.216187,-0.233154,-1.030273,8.850098,-4.882812,33.264160
-0.226318,-0.167480,-1.036011,8.056641,-17.700195,38.879395
-0.222412,-0.069580,-0.949829,6.774902,-19.042969,39.062500
-0.212769,-0.028809,-0.981812,2.807617,-16.601562,32.592773
-0.210571,-0.073242,-0.975952,7.263183,-17.944336,24.841307
-0.206299,-0.136353,-0.947266,12.634276,-16.906738,26.306150
-0.197021,-0.175537,-1.076782,18.554687,-14.709472,30.456541
-0.195557,-0.235229,-1.020264,22.216795,-26.550291,35.827637
-0.193604,-0.215210,-0.936279,27.770994,-24.841307,50.781246
-0.182495,-0.060791,-0.888062,30.151365,-16.540527,56.579586
-0.171509,0.034180,-0.927002,24.414061,-6.225585,52.062984
-0.175415,0.001831,-0.969360,17.700195,-3.479004,39.428711
-0.162109,-0.143799,-1.104126,28.198240,-9.216309,42.907711
-0.145996,-0.143555,-1.093018,31.066893,-18.310547,49.377438
-0.136963,0.010010,-0.881592,22.766111,-32.226562,58.532711
-0.136108,0.096558,-0.812378,15.197753,-23.254393,54.504391
-0.131958,0.154541,-0.857666,22.277830,-9.338379,39.855957
-0.117798,0.125854,-1.048218,27.587889,-9.521484,32.836914
-0.116699,0.010376,-1.110352,33.325195,-21.118162,23.498533
-0.122192,-0.042480,-1.026978,30.395506,-30.212400,32.592773
-0.099487,0.125854,-0.752197,22.644041,-23.315428,44.250484
-0.083374,0.369019,-0.950317,6.713867,5.493164,43.823238
-0.086426,0.333740,-1.019897,3.051758,4.089355,14.892577
-0.103638,0.195068,-0.965454,2.502441,1.037598,6.652832
-0.098511,0.128052,-1.039185,-4.150391,3.967285,4.516602
-0.094116,0.144775,-1.040649,-16.235352,-0.122070,7.263183
-0.090820,0.186646,-0.968994,-15.258788,2.441406,4.943848
-0.100098,0.196289,-0.974976,-13.610839,5.065917,1.403808
-0.104248,0.128662,-1.027588,-18.066406,7.629394,-7.080078
-0.105103,0.108398,-1.025024,-23.864744,6.713867,-9.704590
-0.101196,0.117920,-0.998047,-25.451658,8.911133,-11.840819
-0.113525,0.069580,-1.010010,-28.137205,8.361816,-15.319823
-0.123413,0.054565,-0.894775,-30.639647,8.422852,-14.648437
-0.124756,0.103271,-0.899414,-26.245115,24.414061,-11.108397
-0.127686,0.102905,-1.035034,-14.648437,31.188963,-22.766111
-0.132690,0.035278,-1.131836,-5.065917,20.202635,-25.268553
-0.135010,0.067383,-0.889160,-8.056641,-0.915527,-30.151365
-0.142456,0.034180,-0.903564,-22.399900,13.183593,-38.513184
-0.181763,-0.119995,-0.977905,31.799314,-21.545408,51.391598
-0.164795,0.081421,-0.891846,30.212400,-17.700195,61.096188
-0.151123,0.131714,-0.906616,26.672361,-8.911133,48.889156
-0.148926,0.094604,-0.898804,22.094725,-3.967285,34.423828
-0.145630,0.024414,-1.015137,19.958496,-0.793457,31.188963
-0.140259,-0.068970,-1.145874,20.568846,-5.432128,30.029295
-0.139893,-0.057861,-1.040405,17.761230,-22.033689,38.818359
-0.116943,0.104858,-0.814331,16.662598,-11.169433,41.442867
-0.114136,0.224976,-0.821777,17.883301,-2.563476,34.851074
-0.122559,0.107788,-0.907959,10.864257,9.826660,13.916015
-0.126831,0.005249,-1.026855,7.507324,14.709472,5.615234
-0.127808,-0.046509,-1.089722,9.338379,8.666992,9.216309
-0.125000,0.031006,-0.981934,7.629394,-2.563476,15.869140
-0.130249,0.066162,-0.971558,-1.464844,-1.464844,14.282226
-0.149292,0.128418,-0.940552,4.272461,3.662109,6.225585
-0.153076,0.061646,-1.011475,8.361816,7.873535,1.892090
-0.151855,0.060059,-1.067383,7.873535,7.690429,-0.366211
-0.149292,0.048950,-1.080444,4.882812,2.136230,-2.990722
-0.144531,0.024292,-1.039673,0.854492,-3.845215,-2.563476
-0.152588,0.095825,-0.936035,-3.051758,-2.868652,-3.479004
-0.155396,0.115112,-0.977295,-3.051758,5.493164,-8.972168
-0.151855,0.110352,-0.981934,-1.403808,7.568359,-14.953612
-0.140381,0.085693,-1.003540,-3.906250,8.056641,-17.944336
-0.146484,0.046997,-1.003784,-4.028320,5.676269,-21.362303
-0.154663,0.040405,-0.949341,-4.760742,4.272461,-21.728514
-0.157959,0.028931,-0.952026,-6.530761,8.300781,-22.521971
-0.155640,0.037720,-0.994141,-7.324218,9.460449,-22.460936
-0.162476,0.045654,-0.944336,-12.084960,8.361816,-25.573729
-0.157104,0.010376,-0.989868,-10.253905,11.962890,-29.296873
-0.165161,-0.063477,-1.081299,-4.028320,1.464844,-27.465818
-0.178711,-0.050903,-0.887085,-4.943848,-2.319336,-23.315428
-0.177124,0.013306,-0.915771,-5.126953,9.033203,-18.005371
-0.173706,0.024414,-0.946045,-3.173828,13.916015,-21.118162
-0.172729,0.015991,-0.985107,-7.751464,13.732909,-28.320311
-0.171265,-0.068726,-1.112183,-10.192870,12.512206,-30.334471
-0.181641,-0.097778,-1.014160,-10.437011,0.000000,-25.268553
-0.188354,-0.067993,-0.892700,-7.385253,-2.014160,-17.211914
-0.203979,-0.072388,-0.872192,7.751464,14.282226,-15.014647
-0.207764,-0.009521,-0.983643,27.160643,19.470215,-14.831542
-0.184814,0.032227,-0.944214,40.283199,17.944336,-17.883301
-0.184692,0.044312,-0.989990,7.751464,18.066406,-27.526854
-0.191528,-0.084961,-1.079956,-1.098633,14.343261,-31.982420
-0.196289,-0.110596,-0.956665,-7.812500,3.906250,-26.245115
-0.213745,-0.087036,-0.993530,-16.784668,8.239746,-18.249512
-0.209839,-0.021240,-0.986450,-2.014160,8.972168,-10.803222
-0.205811,0.100342,-0.964478,-0.671387,8.300781,-20.751951
-0.205688,0.017456,-0.959839,-2.563476,6.713867,-26.916502
-0.202393,-0.041992,-1.007690,-10.559081,7.141113,-28.503416
-0.202026,-0.056396,-1.009155,-16.967773,3.173828,-22.521971
-0.202393,0.002808,-0.947144,-14.587401,0.854492,-16.601562
-0.218994,0.067871,-0.946899,-11.535644,1.647949,-18.188477
-0.233276,0.049683,-0.876831,-0.732422,1.586914,-24.780272
-0.231323,0.054687,-0.867310,1.831055,9.521484,-28.320311
-0.228516,0.033813,-1.037231,-9.216309,15.136718,-34.851074
-0.230713,-0.054932,-1.084717,-14.892577,9.826660,-35.034180
-0.240723,-0.010010,-1.007568,-25.085447,-0.122070,-30.395506
-0.246704,-0.002930,-0.957397,-19.226074,-2.136230,-31.005857
-0.249878,0.023682,-0.918457,-12.390136,0.549316,-31.860350
-0.260620,-0.005981,-0.930054,-4.821777,5.432128,-37.475586
-0.256226,-0.080322,-1.065063,-7.202148,10.314940,-41.320797
-0.249756,-0.133789,-1.115112,-10.742187,4.394531,-37.658691
-0.243042,-0.121216,-0.999023,-18.493652,-5.371093,-28.503416
-0.250977,-0.100830,-0.914917,-23.132322,-5.187988,-25.512693
-0.262085,-0.102539,-0.967407,-24.536131,-0.244141,-22.277830
-0.258667,-0.113159,-0.973022,-15.930175,0.244141,-21.545408
-0.242554,-0.153442,-0.985596,-15.380858,1.831055,-22.277830
-0.236328,-0.268555,-1.085327,-16.967773,-0.366211,-20.751951
-0.239014,-0.229980,-0.911499,-22.827147,-12.878417,-9.155273
-0.229492,-0.224243,-0.872559,-25.390623,-7.080078,-4.638672
-0.227661,-0.260376,-0.914551,-20.141600,-1.586914,-2.746582
-0.221924,-0.273315,-0.921997,-14.160155,-3.662109,4.089355
-0.212524,-0.293091,-0.939941,-11.779784,-2.929687,7.385253
-0.221558,-0.302979,-1.009644,-5.249023,-4.882812,16.784668
-0.231079,-0.266602,-0.932739,-0.671387,-11.657714,28.259275
-0.242554,-0.166626,-0.854004,-1.770019,-7.202148,31.921385
-0.240601,-0.079102,-0.977051,-3.906250,3.601074,33.325195
-0.235718,-0.082642,-1.051147,2.075195,1.953125,26.855467
-0.229980,-0.143555,-1.030151,7.690429,-5.676269,22.338865
-0.224731,-0.277222,-1.002197,7.751464,-6.469726,24.536131
-0.231812,-0.205200,-0.934937,6.164550,-10.192870,39.001465
-0.230225,-0.124390,-0.874146,3.662109,-7.263183,44.189449
-0.226196,-0.066162,-0.932129,2.136230,-0.427246,36.437988
-0.229004,-0.127075,-1.033447,4.211426,-1.098633,33.203125
-0.218140,-0.210449,-1.051392,15.747069,-7.751464,34.301758
-0.219727,-0.217407,-1.017212,25.207518,-15.991210,45.898434
-0.211670,-0.114868,-0.929321,29.418943,-17.700195,55.725094
-0.206177,-0.001221,-0.842896,29.418943,-14.770507,56.274410
-0.199219,0.075073,-0.951294,24.780272,-2.502441,49.499508
-0.195801,0.044189,-1.052002,28.686522,0.366211,36.682129
-0.174927,-0.048584,-1.116943,31.372068,-5.615234,34.240723
-0.181885,-0.130127,-1.007080,29.479979,-20.446775,35.583496
-0.167847,-0.009521,-0.824829,27.587889,-23.315428,47.363277
-0.155396,0.082520,-0.834961,26.611326,-8.300781,46.630856
-0.152954,0.114136,-0.979858,25.878904,-4.089355,38.940430
-0.149536,-0.020996,-1.060425,25.329588,-7.690429,25.695799
-0.148071,-0.048340,-1.069946,19.958496,-17.028809,29.052732
-0.155640,-0.067749,-0.957764,11.901855,-23.254393,36.437988
-0.147583,0.047729,-0.864502,13.183593,-19.226074,41.442867
-0.138672,0.156372,-0.975708,24.597166,-7.263183,38.513184
-0.129639,0.129883,-1.038086,27.954100,-9.582520,23.559568
-0.137451,0.075195,-1.082642,22.705076,-15.624999,18.554687
-0.131226,0.065674,-0.982300,10.925292,-31.127928,14.831542
-0.119751,0.113159,-0.909302,-1.403808,-28.747557,17.761230
-0.109375,0.199585,-0.940063,0.915527,-13.244628,13.671874
-0.108765,0.201538,-0.903320,2.380371,-9.460449,10.253905
-0.102295,0.174438,-0.960205,4.211426,3.051758,4.516602
-0.104004,0.170044,-1.008057,0.305176,5.920410,-1.525879
-0.106323,0.128052,-1.000122,-6.530761,3.845215,-4.333496
-0.099976,0.162354,-1.022827,-20.629881,2.929687,-6.103515
-0.099854,0.161011,-1.014160,-24.169920,1.098633,-11.962890
-0.108643,0.117432,-0.988770,-18.554687,5.065917,-12.573241
-0.112671,0.180664,-0.976685,-18.920898,7.324218,-13.305663
-0.121826,0.107422,-0.984497,-25.573729,10.864257,-22.705076
-0.122803,0.071899,-1.011353,-28.381346,13.000487,-26.062010
-0.130859,0.029297,-0.982178,-29.968260,10.864257,-25.695799
-0.121948,0.034546,-0.999878,-35.034180,13.793944,-26.184080
-0.123047,0.046021,-1.026367,-33.447266,13.000487,-29.052732
-0.133179,0.077271,-0.950073,-25.207518,7.019042,-34.729004
-0.150513,0.010498,-0.917847,-22.399900,15.747069,-40.527340
-0.156372,-0.001587,-0.974243,-19.958496,16.357422,-39.001465
-0.159668,0.013550,-1.029785,-19.592285,19.836426,-39.306641
-0.150757,-0.026855,-1.088379,-21.972654,13.427733,-46.142574
-0.164062,-0.101563,-1.028076,-29.357908,1.220703,-46.874996
-0.185913,-0.127686,-0.918945,-32.287598,1.708984,-45.104977
-0.195190,-0.084473,-0.978271,-38.574219,9.704590,-40.832516
-0.197266,-0.117065,-1.023804,-36.499023,9.887695,-41.992184
-0.188721,-0.167725,-1.055054,-21.728514,1.281738,-36.193848
-0.181763,-0.140381,-0.955078,-9.399414,-2.624511,-32.836914
-0.150024,-0.214600,-1.064331,-14.709472,0.122070,-34.667969
-0.157471,-0.138672,-0.901001,-20.507811,-5.126953,-32.287598
-0.172974,-0.102905,-0.812866,-15.441894,8.361816,-37.536621
-0.189453,-0.152832,-0.911621,-11.596679,14.831542,-39.794922
-0.190186,-0.224365,-1.018066,-8.666992,19.653320,-40.893551
-0.185059,-0.270874,-1.100952,-3.906250,16.662598,-34.362793
-0.180908,-0.253296,-1.089478,0.976562,0.549316,-22.766111
-0.196411,-0.102051,-0.905762,0.854492,-3.906250,-21.057127
-0.211548,-0.148804,-0.857422,1.770019,1.586914,-29.418943
-0.215332,-0.169434,-0.951172,-1.098633,11.535644,-32.775879
-0.209961,-0.168213,-1.009399,-4.333496,11.779784,-34.729004
-0.194946,-0.282104,-1.102051,-3.723144,7.873535,-35.461426
-0.191406,-0.244141,-0.962769,-2.563476,-5.126953,-24.902342
-0.199463,-0.170776,-0.859619,-4.821777,-4.821777,-18.249512
-0.206665,-0.191162,-0.876465,-6.347656,4.943848,-19.531250
-0.220581,-0.223022,-0.934692,-6.835937,8.178711,-19.836426
-0.218750,-0.256226,-0.975098,-11.657714,9.704590,-20.507811
-0.217163,-0.326538,-1.040039,-12.451171,7.873535,-19.714355
-0.225830,-0.456177,-1.059082,-11.230468,-3.662109,-4.821777
-0.232056,-0.389771,-0.956055,-10.986327,-6.896972,4.089355
-0.219604,-0.271484,-0.883423,-12.329101,-7.080078,14.465331
-0.214478,-0.254395,-0.879761,-8.544922,-2.319336,12.023925
-0.212036,-0.340820,-0.939331,-6.591796,-0.793457,13.122558
-0.217529,-0.350830,-1.046143,-7.690429,-2.807617,17.089844
-0.224609,-0.355347,-0.997681,0.366211,-10.070800,24.230955
-0.224609,-0.314819,-0.924927,0.061035,-10.192870,36.193848
-0.212036,-0.194214,-0.913086,-1.586914,-5.493164,39.001465
-0.205444,-0.182983,-1.004517,-2.807617,0.366211,35.095215
-0.198975,-0.235474,-0.985596,-2.258301,-3.906250,29.296873
-0.190796,-0.287842,-0.969482,-3.417969,-8.422852,30.090330
-0.185425,-0.307739,-0.907104,-8.483887,-10.681151,39.550781
-0.183960,-0.248901,-0.870605,-8.972168,-6.896972,42.419430
-0.164673,-0.220825,-0.904785,-3.906250,1.953125,42.846676
-0.160767,-0.218384,-0.910889,6.347656,2.990722,41.809078
-0.167480,-0.197632,-0.935669,11.840819,0.793457,40.588375
-0.157104,-0.249756,-1.010010,13.427733,-2.319336,39.978027
-0.139160,-0.299316,-0.961548,13.000487,-11.169433,43.640133
-0.147705,-0.301758,-0.876709,18.188477,-12.756347,53.222652
-0.164673,-0.143799,-0.754761,21.301268,-7.202148,58.105465
-0.171997,-0.020508,-0.938110,22.888182,8.972168,54.626461
-0.169800,-0.035278,-1.088379,24.597166,9.887695,42.419430
-0.158447,-0.160522,-1.178345,21.545408,-9.155273,41.137691
-0.149048,-0.153931,-0.978149,17.761230,-15.808105,45.471188
-0.147461,-0.048096,-0.872803,13.671874,-15.991210,49.804684
-0.148804,0.002197,-0.845459,19.226074,-5.310058,45.166012
-0.148071,0.034912,-1.004028,23.193357,3.845215,34.851074
