"aX,aY,aZ,gX,gY,gZ"
"-0.451172,-1.276733,0.001343,3.356933,-4.760742,76.965332"
"-0.467163,-1.118774,0.039795,7.934570,-3.295898,91.796867"
"-0.454468,-1.043823,0.031128,5.981445,1.281738,101.013176"
"-0.449707,-1.092163,0.087402,-0.671387,3.234863,104.309074"
"-0.447632,-1.077271,0.087402,-3.845215,11.596679,115.905754"
"-0.415527,-1.007446,0.017944,-4.943848,18.920898,120.361320"
"-0.342651,-1.035889,-0.092407,-3.662109,19.592285,120.605461"
"-0.290039,-1.127686,-0.092896,4.577637,12.084960,127.380363"
"-0.277954,-1.155518,-0.034790,19.470215,3.295898,144.836426"
"-0.274048,-1.038086,0.079102,22.338865,7.690429,158.447266"
"-0.220337,-0.875000,0.066040,13.061522,14.038085,154.296875"
"-0.120239,-1.025513,-0.056274,-5.737304,24.902342,137.756348"
"-0.087402,-1.093628,-0.101685,0.732422,22.460936,144.470215"
"-0.049927,-1.104248,-0.099121,9.094238,16.845703,154.296875"
"-0.022827,-1.114624,0.029175,13.671874,7.385253,167.541489"
"-0.006348,-1.160034,0.068726,7.934570,12.939452,179.443344"
"0.018066,-1.018188,0.009155,3.662109,16.967773,189.086899"
"0.085693,-0.843018,-0.092163,0.122070,15.930175,192.932114"
"0.134399,-0.865967,-0.147827,6.591796,9.399414,183.288559"
"0.202393,-0.917114,-0.142090,25.817869,-1.037598,183.532700"
"0.257568,-0.950439,-0.114624,29.479979,-5.065917,185.424789"
"0.285889,-0.898193,-0.057617,24.597166,-14.892577,192.626938"
"0.303101,-0.807495,-0.016968,10.009766,-14.770507,197.814926"
"0.366455,-0.579712,-0.017334,6.896972,-9.338379,193.847641"
"0.458008,-0.498047,-0.075928,3.845215,-2.136230,169.860825"
"0.492187,-0.525146,-0.047241,4.699707,-3.479004,140.869141"
"0.522827,-0.622559,0.086426,-1.159668,3.479004,127.441399"
"0.569824,-0.607666,0.022827,-12.451171,10.925292,126.464836"
"0.624634,-0.488647,-0.119141,-26.123045,14.038085,121.276848"
"0.655151,-0.437622,-0.126343,-24.414061,3.479004,104.492180"
"0.702026,-0.513550,-0.093872,-19.897461,-1.770019,95.092766"
"0.724609,-0.467529,0.022461,-9.887695,-10.437011,86.914055"
"0.730713,-0.460937,0.066895,-18.798828,-4.211426,70.617676"
"0.741943,-0.593872,0.069580,-32.043457,7.934570,63.354488"
"0.774292,-0.428833,-0.056641,-34.851074,11.962890,65.856934"
"0.793335,-0.191162,-0.116577,-28.198240,8.239746,54.931637"
"0.801025,-0.150269,-0.093506,-13.305663,-1.831055,24.841307"
"0.803223,-0.200928,-0.076538,-3.234863,-8.361816,-7.019042"
"0.800293,-0.518311,-0.045410,-0.793457,-10.803222,-18.615723"
"0.790039,-0.613403,0.012817,-0.427246,-11.474608,-14.831542"
"0.780884,-0.513062,0.035400,-7.995605,-8.666992,-4.821777"
"0.779907,-0.345947,0.038696,-14.892577,-3.601074,-14.953612"
"0.761230,-0.223022,0.048706,-16.052246,-0.549316,-24.841307"
"0.750366,-0.261230,-0.026001,-7.080078,7.873535,-52.612301"
"0.745972,-0.353638,-0.089478,6.286621,4.394531,-75.927734"
"0.750000,-0.718628,-0.137085,16.113281,-12.451171,-77.148437"
"0.727661,-0.866699,0.112305,18.615723,-18.371582,-64.514160"
"0.704346,-0.525269,0.197144,9.277344,-2.868652,-43.029781"
"0.705566,-0.346924,0.072998,4.211426,24.414061,-63.537594"
"0.695923,-0.216187,-0.155762,5.676269,23.742674,-82.397453"
"0.635620,-0.323486,-0.130493,8.422852,1.770019,-113.891594"
"0.596558,-0.471069,-0.111084,0.000000,-14.953612,-133.911133"
"0.555908,-0.819214,-0.086426,7.751464,-23.498533,-132.690430"
"0.527588,-0.845093,0.104614,17.150879,-21.789549,-123.901360"
"0.498413,-0.607422,0.130249,20.874022,0.061035,-112.915031"
"0.483521,-0.548828,0.019165,7.812500,17.272949,-127.990715"
"0.452026,-0.677856,-0.199707,2.441406,13.854980,-139.038086"
"0.413086,-0.936401,-0.171631,-2.502441,-9.094238,-148.559570"
"0.396362,-1.029663,-0.092896,6.286621,-27.648924,-135.375977"
"0.348511,-1.011597,0.176514,5.493164,-10.192870,-118.103020"
"0.310059,-0.914917,0.060547,1.831055,-1.220703,-113.769524"
"0.269775,-0.779297,0.023682,5.554199,7.141113,-114.440910"
"0.232056,-0.927979,-0.156372,-4.760742,12.756347,-130.676270"
"0.219238,-1.042603,-0.134399,-7.080078,-3.967285,-130.554199"
"0.177856,-1.093506,-0.031616,-5.004883,-7.751464,-122.009270"
"0.088623,-0.901367,0.082031,4.333496,-8.850098,-107.727043"
"0.046753,-0.793823,0.136475,12.268065,-0.854492,-115.417473"
"0.013794,-0.743164,-0.009155,1.037598,12.268065,-142.089844"
"0.021851,-1.092896,-0.186401,-4.333496,8.850098,-153.503418"
"0.007813,-1.321655,-0.074951,-10.375976,-8.178711,-143.249512"
"-0.018677,-1.257080,-0.002808,-2.441406,-12.512206,-111.877434"
"-0.082031,-0.976196,0.055176,15.808105,-3.906250,-101.257317"
"-0.142822,-0.738525,0.011841,17.395020,-0.976562,-105.651848"
"-0.172363,-0.847900,-0.024048,6.530761,-2.258301,-129.394531"
"-0.167969,-1.019897,-0.026489,-8.056641,-5.310058,-140.991211"
"-0.165771,-1.212158,-0.029663,-13.977050,-5.920410,-132.812500"
"-0.216797,-1.064697,0.003296,-15.563964,-6.835937,-108.215324"
"-0.294067,-0.847656,0.045044,-9.277344,-4.699707,-96.679680"
"-0.332153,-0.771729,0.012085,-19.592285,-2.990722,-104.980461"
"-0.370117,-0.849121,-0.131104,-26.977537,-6.896972,-115.783684"
"-0.353394,-1.137817,-0.133911,-33.142090,-24.719236,-128.112793"
"-0.358765,-1.253052,-0.097778,-23.498533,-36.682129,-110.351555"
"-0.382080,-1.364990,0.112915,9.826660,-29.846189,-73.791504"
"-0.421265,-1.088623,0.147583,21.118162,-15.441894,-55.480953"
"-0.473389,-0.776978,0.001831,14.282226,2.380371,-46.142574"
"-0.471680,-0.801025,-0.062744,-6.652832,-1.159668,-61.767574"
"-0.460937,-0.916016,-0.081543,-21.423338,-7.812500,-70.678711"
"-0.453125,-1.108521,-0.045288,-22.888182,-11.840819,-65.490723"
"-0.468872,-1.042236,-0.042480,-11.901855,-14.343261,-41.809078"
"-0.499023,-0.989014,0.016602,1.098633,-13.427733,-29.663084"
"-0.503906,-1.006226,0.060303,8.361816,-8.239746,-24.230955"
"-0.493896,-0.971191,0.028564,6.164550,-3.662109,-19.287109"
"-0.479004,-0.951172,0.006714,-1.098633,-1.403808,-13.305663"
"-0.491333,-0.932739,-0.001465,-10.742187,-3.051758,-8.361816"
"-0.500122,-0.944702,0.008911,-13.854980,-4.882812,-4.577637"
"-0.510132,-1.007935,0.027466,-8.850098,-1.647949,4.577637"
"-0.534180,-0.991333,0.047729,-4.211426,0.610352,11.840819"
"-0.534180,-0.929077,-0.005493,-2.014160,4.943848,22.399900"
"-0.526855,-0.953369,-0.010742,-6.103515,1.342773,24.963377"
"-0.495239,-1.045044,-0.011597,-7.812500,-0.305176,28.259275"
"-0.469482,-1.181641,-0.003906,-10.314940,-3.662109,39.184570"
"-0.465210,-1.239624,0.023560,-5.371093,-5.981445,62.133785"
"-0.479248,-1.170776,0.065308,5.310058,-1.892090,89.721672"
"-0.480835,-1.017700,0.028687,7.019042,1.525879,96.130363"
"-0.434082,-1.040527,-0.007080,3.417969,2.868652,99.060051"
"-0.407593,-1.089111,-0.012695,0.671387,0.793457,107.299797"
"-0.381348,-1.148071,-0.001831,2.868652,-0.366211,115.661613"
"-0.358032,-1.098755,0.039917,7.507324,-0.305176,131.225586"
"-0.339233,-1.092529,0.029297,7.751464,4.394531,139.099121"
"-0.305420,-1.092163,0.029541,12.695312,7.263183,149.291992"
"-0.259155,-1.030151,-0.030640,11.840819,8.483887,153.442383"
"-0.209351,-1.045532,-0.014526,10.070800,2.868652,156.494141"
"-0.188354,-1.073364,0.049683,18.249512,1.403808,163.330063"
"-0.148804,-1.079346,0.075439,20.263670,11.657714,176.635727"
"-0.101196,-0.990479,0.051270,18.920898,16.052246,179.992661"
"-0.044556,-0.895996,0.027954,10.009766,25.817869,178.100571"
"-0.012573,-0.872925,-0.024170,4.577637,33.447266,171.081528"
"0.075684,-0.878662,-0.140503,6.347656,31.738279,167.724594"
"0.153809,-1.076172,-0.162231,16.235352,22.277830,160.644516"
"0.166992,-1.140503,-0.133057,30.151365,9.094238,173.400864"
"0.205078,-1.116943,-0.115356,19.958496,6.042480,199.035629"
"0.226440,-0.919922,-0.144165,14.343261,4.455566,209.045395"
"0.253784,-0.745605,-0.077759,15.808105,-1.525879,210.327133"
"0.278442,-0.675049,0.008789,26.000975,0.793457,195.251450"
"0.375000,-0.696899,-0.022949,11.718749,19.836426,174.743637"
"0.448975,-0.834839,-0.188965,6.042480,20.629881,169.982895"
"0.490601,-0.750854,-0.108765,8.911133,2.563476,176.330551"
"0.516113,-0.670166,-0.109009,-4.882812,-3.845215,176.757797"
""
"-0.275879,-0.971802,-0.032837,-2.929687,12.145995,-113.159172"
"-0.286987,-1.147095,-0.118530,-11.962890,5.737304,-104.797356"
"-0.332153,-1.093262,-0.099609,-10.131835,-0.671387,-93.933098"
"-0.368530,-0.935913,-0.098755,0.976562,-6.347656,-81.359856"
"-0.377686,-0.924683,-0.093384,5.859375,-9.460449,-85.021965"
"-0.384766,-1.106445,-0.020508,1.953125,-10.192870,-88.012688"
"-0.383911,-1.294312,0.059692,-5.737304,-5.554199,-76.538086"
"-0.387451,-1.244873,0.044800,-1.342773,4.577637,-44.372555"
"-0.405884,-1.032471,-0.042603,-2.014160,6.774902,-28.442381"
"-0.435791,-0.889404,-0.093018,-1.586914,4.333496,-26.428221"
"-0.450684,-0.895386,-0.074585,0.244141,-2.441406,-31.311033"
"-0.440308,-0.969116,-0.044189,-1.953125,-5.432128,-34.545898"
"-0.411499,-1.086182,-0.001221,-4.150391,-4.272461,-20.568846"
"-0.409424,-1.072754,0.028198,-5.859375,-2.868652,-11.535644"
"-0.415527,-1.035522,-0.000122,-6.347656,1.892090,3.662109"
"-0.414673,-1.027588,-0.033813,-6.103515,4.272461,14.099120"
"-0.415894,-1.079834,-0.089478,-6.042480,0.549316,24.047850"
"-0.432495,-1.046753,-0.058228,-3.295898,-1.281738,31.555174"
"-0.436157,-1.039429,-0.057617,-2.685547,-1.159668,40.405270"
"-0.426758,-1.081543,-0.041016,-5.554199,-3.723144,48.217770"
"-0.396484,-1.152466,-0.015381,-4.028320,-3.601074,64.758301"
"-0.370605,-1.180908,-0.040527,-2.380371,-2.746582,74.523926"
"-0.351440,-1.271240,-0.021118,-5.004883,-4.577637,94.299309"
"-0.352905,-1.280273,0.023682,-6.225585,-4.089355,121.948235"
"-0.348267,-1.120850,0.013794,0.000000,1.220703,133.300781"
"-0.327881,-0.973999,-0.025879,14.892577,8.178711,140.747070"
"-0.296265,-0.966797,-0.042358,6.164550,7.873535,137.390137"
"-0.225708,-1.075684,-0.059448,-8.361816,2.807617,137.939453"
"-0.169922,-1.270752,-0.023193,-8.117676,0.793457,144.531250"
"-0.169678,-1.244873,0.049194,2.746582,1.220703,172.485336"
"-0.173096,-1.106445,0.084717,10.437011,13.305663,194.274887"
"-0.104370,-0.908203,-0.051514,11.840819,25.817869,187.927231"
"-0.030396,-0.887817,-0.151611,9.582520,19.897461,183.471664"
"0.050903,-0.908691,-0.133179,-5.249023,4.577637,175.903305"
"0.091309,-0.978638,-0.155518,-9.521484,-2.563476,170.776352"
"0.121094,-1.027222,-0.036255,-0.915527,-8.850098,175.415024"
"0.160278,-0.836548,-0.003418,7.141113,-9.216309,187.316879"
"0.190796,-0.746338,-0.034668,7.019042,-3.784179,177.795395"
"0.284302,-0.891357,-0.113647,9.582520,-3.601074,161.865219"
"0.313843,-0.905273,-0.040649,9.155273,-8.728027,168.762192"
"0.375977,-0.848877,-0.017456,-1.953125,-6.896972,171.752914"
"0.411987,-0.903198,-0.030151,3.112793,-0.549316,170.227036"
"0.442383,-0.719482,0.004883,11.169433,-4.638672,174.560532"
"0.496338,-0.605103,0.064819,6.164550,-4.577637,163.391098"
"0.553345,-0.623291,0.060059,-6.896972,-2.563476,143.920898"
"0.585449,-0.490234,0.035156,-6.896972,9.155273,135.864258"
"0.664062,-0.424927,-0.174438,1.037598,10.742187,106.079094"
"0.687256,-0.747192,-0.078247,12.817382,-1.220703,100.280754"
"0.682373,-0.461304,0.183716,13.610839,-10.437011,110.961906"
"0.702881,-0.399780,0.161987,-18.432617,12.817382,88.378899"
"0.771729,-0.364380,-0.105835,-28.320311,18.920898,67.138672"
"0.789673,-0.359985,-0.156616,-25.207518,8.789063,58.410641"
"0.796875,-0.388306,-0.033569,-19.470215,-6.469726,43.151852"
"0.793701,-0.432251,0.006348,-2.746582,-5.371093,34.118652"
"0.782471,-0.362793,0.031982,1.708984,-2.624511,32.897949"
"0.786011,-0.355225,-0.014160,-4.028320,3.479004,20.690916"
"0.792480,-0.405029,-0.019775,-18.798828,6.164550,6.530761"
"0.799194,-0.404297,-0.042236,-21.728514,7.141113,3.295898"
"0.793701,-0.236450,-0.059814,-16.845703,7.080078,0.000000"
"0.784546,-0.182495,-0.065552,-10.864257,6.835937,-18.127441"
"0.775757,-0.204468,-0.064453,-5.126953,5.554199,-40.283199"
"0.756592,-0.283325,-0.055664,-0.671387,3.845215,-56.274410"
"0.755371,-0.409546,-0.137573,-2.075195,3.356933,-63.293453"
"0.748657,-0.512451,-0.089478,-2.624511,-4.455566,-69.152832"
"0.745239,-0.477295,-0.059326,-5.187988,-5.126953,-68.298340"
"0.729126,-0.355103,-0.073120,-5.126953,-5.798339,-78.308105"
"0.679810,-0.250122,-0.028442,-1.525879,-8.056641,-88.134758"
"0.630005,-0.322510,-0.066528,3.234863,-7.629394,-116.943352"
"0.607544,-0.724976,-0.212646,4.821777,-10.375976,-141.540527"
"0.590454,-0.865723,-0.137085,17.639160,-29.968260,-131.408691"
"0.562744,-0.886353,0.096069,22.705076,-30.334471,-120.239250"
"0.539307,-0.690552,0.070312,30.151365,-11.657714,-105.590813"
"0.462402,-0.455566,-0.028198,27.526854,0.915527,-115.173332"
"0.439575,-0.465576,-0.010376,9.582520,4.943848,-151.977539"
"0.386353,-0.818848,-0.216675,-9.704590,0.305176,-172.973618"
"0.382446,-1.217285,-0.045776,1.464844,-20.935057,-163.330063"
"0.377441,-1.168213,0.079468,22.216795,-18.371582,-125.366203"
"0.361328,-1.092407,0.039307,25.817869,2.197266,-102.355949"
"0.312988,-0.851807,0.049683,24.597166,6.591796,-97.778313"
"0.220459,-0.573120,0.000732,9.582520,13.610839,-107.421867"
"0.184937,-0.560181,-0.050049,-4.272461,16.845703,-143.798828"
"0.162109,-0.982910,-0.209717,-7.873535,5.004883,-164.611801"
"0.149902,-1.297119,-0.015137,-3.112793,-4.882812,-155.273437"
"0.128418,-1.120117,0.073364,11.718749,-0.305176,-118.408195"
"0.096802,-0.939453,0.013306,18.798828,12.939452,-103.088371"
"0.022217,-0.742676,-0.084106,14.160155,13.183593,-110.778801"
"-0.031494,-0.894409,-0.150635,-3.967285,6.164550,-136.535645"
"-0.033081,-1.248901,-0.038818,-19.714355,-4.638672,-147.827148"
"-0.037109,-1.359863,0.009521,-27.160643,-1.586914,-125.976555"
"-0.065308,-1.252441,0.051758,-19.958496,2.319336,-108.276360"
"-0.111816,-0.995483,-0.050049,-5.493164,10.192870,-85.876457"
"-0.179199,-0.825195,-0.052734,-2.197266,3.295898,-87.585442"
"-0.195923,-0.856934,-0.079834,-13.244628,-3.662109,-103.698723"
"-0.203247,-1.019043,-0.134521,-24.047850,-15.747069,-107.971184"
"-0.197266,-1.183716,-0.094116,-26.306150,-17.578125,-105.163567"
"-0.214600,-1.363647,-0.028564,-27.648924,-17.639160,-89.599602"
"-0.234497,-1.345459,0.075928,3.906250,-12.939452,-55.419918"
"-0.272095,-0.969604,0.082397,17.700195,7.080078,-38.330078"
"-0.314819,-0.734375,-0.075562,10.864257,7.995605,-46.569820"
"-0.321655,-0.921753,-0.081177,-8.483887,-2.319336,-71.166992"
"-0.322876,-1.014038,-0.062744,-17.517090,-9.033203,-72.875977"
"-0.320923,-1.102295,0.008667,-7.080078,-8.178711,-61.279293"
"-0.329590,-1.064209,0.078857,0.488281,-5.371093,-53.100582"
"-0.350830,-0.867187,0.066040,4.821777,3.356933,-40.954586"
"-0.356079,-0.838013,0.010010,-14.953612,7.629394,-49.377438"
"-0.370117,-0.985840,-0.038574,-25.329588,5.615234,-53.466793"
"-0.365601,-1.044800,-0.076294,-29.724119,2.258301,-47.912594"
"-0.369995,-1.062622,-0.090332,-20.507811,-2.319336,-36.987305"
"-0.376099,-1.087646,-0.062500,-6.774902,-8.911133,-21.240232"
"-0.400269,-1.076050,0.067871,-2.441406,-10.498046,-13.977050"
"-0.417847,-1.031982,0.120483,1.403808,-2.685547,-2.319336"
"-0.420776,-0.993652,0.076904,-3.051758,8.544922,4.455566"
"-0.420166,-0.923584,-0.013672,-7.202148,9.338379,7.019042"
"-0.399414,-0.966187,-0.081787,-7.385253,6.774902,7.263183"
"-0.383667,-1.054199,-0.018921,-4.699707,-1.892090,11.108397"
"-0.361938,-1.196289,0.017700,-5.981445,-3.479004,22.216795"
"-0.353027,-1.264282,0.034668,-9.216309,-3.540039,45.227047"
"-0.372314,-1.274658,0.104004,-8.789063,-1.892090,60.058590"
"-0.396851,-1.012573,0.041504,3.356933,10.375976,85.571281"
"-0.375732,-0.948120,-0.012573,9.399414,14.221190,85.327141"
"-0.342285,-1.017822,-0.009766,8.728027,11.291503,83.068840"
"-0.285278,-1.140869,-0.050049,5.615234,9.765625,87.097160"
"-0.269897,-1.255615,0.008667,0.732422,0.610352,102.661125"
"-0.276367,-1.218750,0.086304,3.662109,-1.831055,127.685539"
"-0.268921,-0.944702,0.080078,6.286621,5.615234,134.216309"
"-0.212891,-0.914429,-0.038208,3.479004,16.052246,124.328606"
"-0.145874,-1.122192,-0.059937,3.723144,10.925292,117.675774"
"-0.113403,-1.194946,-0.042236,11.779784,2.624511,132.629395"
""
"0.054443,-0.961670,-0.116577,-36.315918,5.371093,-177.185043"
"0.042969,-1.344604,-0.002075,-26.489256,-8.117676,-158.386230"
"0.010620,-1.321167,0.132202,-12.573241,-7.812500,-135.375977"
"-0.028809,-1.146729,0.164551,12.268065,3.784179,-104.431145"
"-0.062622,-1.033203,0.125977,14.221190,16.113281,-95.642082"
"-0.112549,-0.842651,-0.000732,-5.737304,14.892577,-111.450188"
"-0.128662,-1.085571,-0.058838,-16.967773,7.507324,-123.046867"
"-0.157471,-1.219238,0.090332,-16.845703,-6.225585,-118.164055"
"-0.164307,-1.125366,0.098999,2.075195,1.464844,-94.238274"
"-0.195435,-0.914429,-0.001831,12.084960,4.028320,-92.468254"
"-0.200562,-0.986206,-0.040649,12.268065,1.159668,-98.632805"
"-0.209717,-1.277710,0.032959,-0.183105,-7.202148,-100.952141"
"-0.231445,-1.305054,0.125610,-3.417969,-8.361816,-71.533203"
"-0.271118,-1.065063,0.119385,-2.380371,4.577637,-47.790524"
"-0.314453,-0.813843,0.033447,-2.197266,6.164550,-48.767086"
"-0.331177,-0.797729,-0.037720,-4.760742,3.234863,-66.162109"
"-0.322876,-0.941406,-0.065674,-8.300781,-6.286621,-81.970207"
"-0.326538,-1.176758,0.028809,-1.098633,-15.502929,-63.720699"
"-0.360352,-1.046875,0.120728,4.516602,-13.916015,-51.391598"
"-0.392334,-0.878174,0.097290,4.699707,-6.713867,-42.358395"
"-0.402710,-0.857544,0.062134,-5.798339,-4.272461,-47.912594"
"-0.394531,-0.934692,0.056885,-13.000487,-3.479004,-57.067867"
"-0.371094,-1.169922,0.028076,-16.662598,-2.685547,-55.603024"
"-0.384521,-1.151733,0.005005,-10.192870,-2.990722,-32.226562"
"-0.422119,-0.993896,0.058105,9.155273,-5.554199,-9.399414"
"-0.432861,-0.927490,0.075684,11.169433,-3.784179,-4.699707"
"-0.427856,-0.959351,0.054932,5.920410,-2.685547,-6.408691"
"-0.411987,-1.078369,0.036011,-2.502441,-1.831055,-4.211426"
"-0.410156,-1.108154,0.027710,-3.234863,-1.586914,9.887695"
"-0.406494,-1.120239,0.025024,-0.610352,-3.540039,25.634764"
"-0.403564,-1.152832,0.049438,2.624511,-5.249023,33.752441"
"-0.408447,-1.111206,0.069336,7.385253,-5.371093,50.964352"
"-0.406128,-1.088867,0.066040,-0.793457,-2.929687,63.049313"
"-0.392456,-1.105957,0.059937,-7.141113,-2.563476,67.687988"
"-0.379395,-1.126709,0.111328,-10.620116,-1.586914,79.467773"
"-0.378174,-1.106812,0.118286,1.586914,6.286621,93.933098"
"-0.355225,-0.984741,0.088379,11.535644,15.502929,99.731438"
"-0.291260,-1.021606,-0.054565,11.840819,15.747069,99.182121"
"-0.240723,-1.212402,-0.033081,6.896972,2.929687,103.393547"
"-0.230957,-1.279053,0.042847,5.371093,-6.469726,123.657219"
"-0.220215,-1.237305,0.140625,5.615234,-3.417969,137.207031"
"-0.206787,-1.125366,0.097168,8.178711,9.155273,156.555176"
"-0.176758,-0.971313,0.075439,10.986327,15.747069,164.855942"
"-0.135376,-0.941406,0.007813,3.173828,20.263670,160.339355"
"-0.052368,-1.088745,-0.046143,-0.549316,16.601562,156.982422"
"-0.023682,-1.202148,0.023926,0.671387,8.239746,168.701157"
"-0.022949,-1.141113,0.071777,10.925292,9.521484,192.199692"
"0.024414,-0.993408,0.067627,12.634276,22.766111,197.326645"
"0.094849,-0.950073,-0.085327,10.620116,24.597166,195.983871"
"0.162964,-0.946045,-0.095337,9.033203,13.122558,195.007309"
"0.197754,-0.971924,-0.093506,17.822266,2.380371,198.181137"
"0.231812,-0.966675,-0.021973,35.095215,-7.019042,208.068832"
"0.263794,-0.832031,0.122559,36.987305,-6.835937,210.998520"
"0.328735,-0.672119,0.090454,23.620604,7.995605,205.749496"
"0.390625,-0.619629,-0.018311,0.976562,19.775391,186.462387"
"0.497925,-0.789795,-0.251953,11.230468,3.234863,175.476059"
"0.516724,-0.869141,-0.068359,28.320311,-12.939452,181.152328"
"0.518677,-0.391357,0.295532,48.339840,-19.165039,197.143539"
"0.567017,-0.193115,0.236450,18.371582,18.188477,164.245590"
"0.694824,-0.214355,-0.141113,1.220703,26.550291,136.596680"
"0.745850,-0.365234,-0.159302,-6.408691,7.629394,97.778313"
"0.748901,-0.442749,-0.091431,-8.972168,-7.751464,80.383293"
"0.755249,-0.502808,-0.011108,-7.629394,-7.629394,79.162598"
"0.775146,-0.365479,-0.022095,-10.070800,-3.356933,79.589844"
"0.791870,-0.280518,-0.053223,-18.737793,-2.685547,66.711426"
"0.823364,-0.228638,-0.106323,-16.967773,-7.446289,45.349117"
"0.825684,-0.196289,-0.021606,-15.136718,-10.192870,35.522461"
"0.830811,-0.299438,0.000610,-18.371582,-7.202148,12.145995"
"0.831909,-0.385376,-0.018066,-18.920898,-3.784179,0.610352"
"0.824829,-0.419800,-0.001099,-22.399900,-5.249023,0.122070"
"0.825195,-0.407715,0.011108,-23.498533,-4.516602,-0.549316"
"0.817383,-0.283691,-0.000732,-18.432617,-3.051758,-1.464844"
"0.812134,-0.232666,-0.004272,-16.113281,-3.540039,-13.916015"
"0.811646,-0.256958,0.004517,-15.624999,-2.990722,-31.005857"
"0.809937,-0.359985,-0.022461,-13.732909,-3.173828,-37.536621"
"0.801147,-0.438232,0.016846,-15.991210,-7.080078,-44.738766"
"0.787476,-0.432983,0.067749,-20.141600,-4.943848,-46.752926"
"0.783813,-0.336426,0.065063,-17.456055,8.483887,-55.541988"
"0.794800,-0.302856,-0.095459,-13.549804,10.681151,-63.354488"
"0.750122,-0.308838,-0.063843,-2.563476,-2.319336,-81.054680"
"0.730591,-0.397095,-0.000122,5.920410,-8.300781,-100.341789"
"0.695435,-0.602051,0.076050,6.896972,-2.258301,-102.600090"
"0.681885,-0.663330,0.100464,6.774902,1.647949,-99.365227"
"0.668457,-0.561646,0.007568,2.685547,8.605957,-91.979973"
"0.661743,-0.527588,-0.064575,4.760742,7.324218,-97.534172"
"0.638184,-0.571899,-0.140503,9.216309,3.051758,-103.515617"
"0.593506,-0.731201,-0.036865,19.226074,-8.483887,-111.938469"
"0.550537,-0.781494,0.131104,22.094725,-11.413573,-107.055656"
"0.538574,-0.717041,0.144775,13.732909,1.647949,-102.966301"
"0.530518,-0.704712,0.010498,7.080078,14.892577,-107.055656"
"0.513428,-0.824463,-0.195190,0.976562,9.460449,-113.647453"
"0.478882,-0.834229,-0.051636,23.254393,-7.385253,-108.703606"
"0.443481,-0.803223,-0.034424,25.756834,-4.516602,-106.933586"
"0.376831,-0.765625,0.140259,14.160155,-0.427246,-112.670891"
"0.359497,-0.796143,0.005981,1.525879,9.521484,-117.370598"
"0.350586,-0.938232,-0.133423,-7.934570,13.183593,-126.403801"
"0.325439,-0.906372,-0.080200,-1.342773,2.807617,-122.131340"
"0.268677,-0.820679,-0.092529,2.746582,2.441406,-130.615234"
"0.197388,-0.895630,0.012573,7.934570,-2.380371,-136.108398"
"0.159912,-1.010742,0.119629,15.502929,-0.854492,-136.474609"
"0.159546,-1.029907,0.032349,7.690429,14.648437,-126.831047"
"0.117432,-0.943115,-0.075928,2.075195,13.916015,-123.596184"
"0.077759,-0.968262,-0.080566,-11.596679,7.446289,-127.685539"
"0.060181,-1.037598,-0.102173,-25.146482,4.272461,-132.202148"
"0.032593,-1.146851,-0.121948,-24.414061,-3.601074,-124.145500"
"-0.023071,-1.091919,-0.039063,-16.235352,-9.155273,-115.539543"
"-0.082031,-0.930298,0.008057,2.441406,-8.911133,-106.262199"
"-0.111938,-0.949585,-0.009888,5.798339,-2.380371,-116.577141"
"-0.125610,-1.177124,0.072754,-10.375976,2.380371,-119.750969"
"-0.088257,-1.375854,-0.133423,-13.427733,5.554199,-109.436028"
"-0.150513,-1.073730,-0.044678,9.094238,-2.868652,-76.232910"
"-0.193970,-0.919434,0.054443,23.376463,-0.915527,-75.561523"
"-0.250000,-0.824707,0.064697,22.644041,6.469726,-84.533684"
"-0.273193,-0.843750,-0.028198,3.417969,9.094238,-101.501457"
"-0.262329,-0.968506,-0.062866,-19.592285,1.037598,-111.938469"
"-0.233276,-1.305298,-0.067993,-20.324705,-6.225585,-92.590324"
"-0.249512,-1.250732,-0.003540,-6.713867,-9.033203,-54.626461"
"-0.335083,-0.819702,0.044922,0.610352,-7.690429,-45.959469"
"-0.413330,-0.578857,0.067261,10.437011,2.685547,-61.279293"
"-0.418945,-0.651489,0.000854,-1.464844,9.704590,-95.947258"
"-0.370605,-1.124756,-0.077393,-32.958984,-0.793457,-100.952141"
"-0.335938,-1.377197,-0.051270,-40.649410,-6.652832,-86.547844"
"-0.376587,-1.156860,0.003418,-17.639160,-8.972168,-44.799801"
"-0.406250,-0.974976,-0.001343,14.099120,-2.807617,-23.681639"
"-0.453491,-0.798462,0.035645,6.713867,-2.014160,-34.851074"
"-0.447510,-0.952026,0.033325,-4.882812,-1.464844,-41.503902"
"-0.412476,-1.122070,-0.022461,-19.775391,0.427246,-38.452148"
"-0.393433,-1.167969,-0.087402,-21.728514,-1.831055,-18.310547"
""
"0.551147,-0.607544,-0.085449,5.371093,-4.516602,-132.995605"
"0.494873,-0.832642,-0.012085,-7.812500,-10.314940,-138.793945"
"0.496948,-1.092773,0.137695,-11.047362,-6.164550,-132.385254"
"0.503296,-1.116577,-0.126831,-22.338865,8.422852,-103.881828"
"0.499146,-0.981079,-0.062988,-15.014647,-11.474608,-78.002930"
"0.455078,-0.769897,-0.034302,0.305176,-1.892090,-83.435051"
"0.401978,-0.661499,-0.002808,9.277344,-2.563476,-90.576164"
"0.337158,-0.626953,-0.039673,9.643555,-1.403808,-112.853996"
"0.310669,-0.809692,-0.044800,1.342773,-8.239746,-139.343262"
"0.286865,-1.127686,0.072021,2.685547,-5.920410,-127.197258"
"0.286987,-1.110229,-0.026245,6.469726,3.417969,-116.027824"
"0.254272,-0.931274,-0.079712,8.850098,8.850098,-101.013176"
"0.224121,-0.818726,-0.070435,-4.760742,5.004883,-105.957024"
"0.186401,-0.889526,-0.179687,-10.925292,-5.249023,-122.253410"
"0.136719,-1.018311,-0.071167,-5.065917,-15.136718,-121.704094"
"0.109497,-1.052246,0.010864,7.202148,-15.502929,-114.257805"
"0.102051,-1.078979,-0.017090,10.192870,-4.028320,-107.666008"
"0.054932,-1.044434,0.047363,9.704590,-4.150391,-104.187004"
"-0.004639,-0.932739,0.148315,-3.295898,-0.122070,-104.003899"
"-0.021729,-0.916260,0.058105,-29.357908,11.474608,-115.295403"
"-0.058960,-0.960693,-0.113159,-27.893064,8.728027,-119.262688"
"-0.057617,-1.164795,-0.103027,-5.615234,-0.671387,-119.567863"
"-0.057007,-1.293213,-0.060303,15.075683,-4.699707,-102.050774"
"-0.084839,-1.174805,0.039307,28.137205,-6.164550,-75.378418"
"-0.169800,-0.796387,0.091431,18.554687,1.586914,-74.279785"
"-0.223633,-0.787109,-0.036499,-8.056641,10.559081,-99.548332"
"-0.219971,-1.019287,-0.133057,-16.113281,1.464844,-113.952629"
"-0.196289,-1.191284,-0.187866,-16.906738,-9.338379,-107.177727"
"-0.176514,-1.508057,-0.118652,-14.038085,-17.883301,-93.566887"
"-0.252563,-1.207397,0.199585,12.329101,-20.141600,-47.790524"
"-0.280518,-0.988159,0.197510,18.615723,8.666992,-36.132812"
"-0.306763,-0.819458,-0.002563,-7.934570,14.892577,-50.720211"
"-0.313477,-0.891968,-0.079468,-16.845703,9.399414,-57.006832"
"-0.297607,-1.054565,-0.109863,-20.019531,-2.685547,-60.058590"
"-0.288208,-1.149048,-0.085815,-7.873535,-11.108397,-49.011227"
"-0.301758,-1.162476,0.022339,12.084960,-8.850098,-24.963377"
"-0.342407,-0.979004,0.108398,14.831542,-4.028320,-17.883301"
"-0.361450,-0.841919,0.057251,1.464844,7.934570,-18.005371"
"-0.345459,-0.979614,-0.085693,-13.244628,11.596679,-29.785154"
"-0.328613,-1.083374,-0.106812,-15.136718,1.525879,-25.451658"
"-0.308716,-1.207031,-0.096680,-14.709472,-5.065917,-16.601562"
"-0.314453,-1.181274,-0.035156,-4.821777,-14.587401,7.507324"
"-0.355225,-1.035889,0.038330,7.568359,-13.305663,24.475096"
"-0.367554,-1.011841,0.073730,10.803222,-3.967285,25.512693"
"-0.346802,-1.086182,0.029541,6.408691,1.525879,25.939939"
"-0.311646,-1.250366,-0.073486,-4.211426,3.112793,35.095215"
"-0.314453,-1.231567,-0.056763,-2.258301,-5.737304,59.814449"
"-0.331421,-1.131592,-0.031006,0.366211,-6.347656,67.810059"
"-0.313232,-1.188110,-0.014404,1.953125,-6.042480,74.829102"
"-0.307739,-1.100708,-0.012573,2.136230,-6.530761,88.989250"
"-0.287842,-1.074951,-0.022949,2.441406,-8.850098,94.421379"
"-0.215820,-1.398560,-0.017944,4.638672,-9.643555,97.717278"
"-0.194946,-1.443726,-0.072021,2.807617,-11.779784,138.061523"
"-0.196777,-1.345825,-0.080322,-4.943848,-19.287109,174.377426"
"-0.215942,-1.193359,0.062988,20.202635,-16.845703,189.697250"
"-0.217896,-0.887695,0.270386,42.602535,-3.845215,192.626938"
"-0.088745,-0.807129,0.041016,49.987789,36.193848,175.842270"
"-0.021240,-0.875732,-0.139038,26.794432,39.001465,158.386230"
"0.068359,-1.009399,-0.180054,-1.892090,14.953612,155.456543"
"0.116333,-1.263428,-0.200684,-10.742187,7.324218,160.461426"
"0.059204,-1.044922,-0.001343,6.530761,-7.141113,195.190414"
"0.061890,-0.820312,0.133667,36.254883,6.103515,204.711899"
"0.165894,-0.632080,0.074463,43.395992,37.536621,180.847153"
"0.300537,-0.536865,-0.198608,36.376953,41.931149,166.931137"
"0.400024,-0.655396,-0.317993,5.065917,22.338865,133.972168"
"0.428345,-0.797119,-0.289063,-8.483887,-7.629394,118.164055"
"0.454712,-1.086304,-0.094360,16.906738,-18.676758,137.939453"
"0.417969,-0.890869,0.125000,26.123045,-15.686034,155.822754"
"0.471436,-0.445923,0.044556,26.245115,6.774902,163.391098"
"0.525757,-0.342407,-0.143188,6.958007,24.658201,125.549309"
"0.615723,-0.434326,-0.330811,-2.563476,16.357422,103.820793"
"0.646606,-0.685547,-0.185059,-14.221190,-7.812500,77.270508"
"0.643433,-0.734985,-0.126831,-15.014647,-11.108397,78.308105"
"0.643066,-0.720215,-0.056152,-14.343261,-9.094238,81.787102"
"0.671997,-0.545776,-0.048218,-17.150879,-3.112793,87.768547"
"0.709595,-0.352539,-0.160034,-28.503416,0.427246,77.453613"
"0.721069,-0.294189,-0.160522,-30.456541,-5.920410,52.856441"
"0.731079,-0.265381,-0.074463,-27.526854,-7.568359,39.367676"
"0.736816,-0.497192,-0.068604,-22.033689,-4.394531,13.122558"
"0.733276,-0.633911,-0.034668,-13.122558,-2.746582,11.657714"
"0.728638,-0.582275,-0.017700,-10.192870,4.150391,25.390623"
"0.734253,-0.332397,-0.076416,-11.779784,5.798339,25.207518"
"0.736572,-0.186157,-0.108154,-14.038085,5.798339,8.972168"
"0.730225,-0.144653,-0.090576,-10.253905,2.319336,-16.418457"
"0.719849,-0.187500,-0.103394,-9.399414,3.173828,-32.043457"
"0.717651,-0.513306,-0.164185,-5.371093,3.173828,-56.945797"
"0.715088,-0.635864,-0.137329,4.028320,-1.770019,-51.879879"
"0.713135,-0.618286,-0.056152,2.746582,-1.281738,-38.574219"
"0.704102,-0.425415,-0.079102,-2.563476,0.549316,-37.231445"
"0.677734,-0.257080,-0.116577,-13.427733,1.464844,-51.574703"
"0.668945,-0.247803,-0.138428,-25.451658,-3.479004,-84.045403"
"0.644287,-0.538208,-0.194946,-28.686522,-8.483887,-99.731438"
"0.610840,-0.843628,-0.044800,-17.517090,-20.812986,-105.834953"
"0.598999,-0.842407,0.056519,-3.845215,-16.906738,-88.928215"
"0.579224,-0.696655,0.077148,-4.821777,-0.183105,-84.899895"
"0.556641,-0.654419,-0.047729,-5.676269,3.601074,-88.684074"
"0.523804,-0.699097,-0.068359,0.122070,1.098633,-96.740715"
"0.518066,-0.767090,-0.103027,8.422852,1.037598,-101.989738"
"0.500122,-0.886841,-0.086914,9.155273,-3.723144,-101.257317"
"0.462646,-0.973755,0.008789,3.662109,-4.333496,-94.238274"
"0.464233,-0.930664,-0.058228,-7.080078,-5.859375,-78.247070"
"0.436279,-0.718384,-0.046021,-6.652832,-7.019042,-82.885735"
"0.389404,-0.718994,-0.073242,-5.554199,-4.638672,-92.651360"
"0.367310,-0.953491,-0.147583,-8.361816,-5.859375,-107.727043"
"0.352661,-1.033691,-0.090576,1.403808,-16.662598,-99.182121"
"0.316650,-0.981567,0.078735,8.911133,-9.887695,-87.219231"
"0.285645,-0.866821,0.038086,9.887695,-1.342773,-87.280266"
"0.252441,-0.811646,-0.075317,2.868652,6.042480,-95.703117"
"0.237305,-0.833740,-0.112793,-10.009766,0.305176,-107.849113"
"0.191162,-0.883423,-0.083618,-11.901855,-3.906250,-111.083977"
"0.145630,-0.883789,-0.041870,-4.455566,-7.446289,-113.830559"
"0.122925,-0.840576,-0.030396,4.150391,-7.812500,-118.408195"
"0.060547,-0.804077,-0.046387,-0.854492,-8.300781,-134.643555"
"0.012329,-1.033203,-0.013916,-5.493164,-8.483887,-142.578125"
"-0.012695,-1.190186,-0.025635,-12.939452,-8.972168,-137.268066"
"-0.029175,-1.161499,-0.026489,-11.474608,-12.207030,-119.812004"
"-0.069458,-1.152832,0.025757,-6.042480,-10.009766,-109.497063"
"-0.100342,-1.108276,0.043335,-0.549316,-4.638672,-104.553215"
"-0.098267,-1.154419,-0.096069,10.009766,6.591796,-99.304192"
"-0.116333,-1.128540,-0.085083,12.756347,-0.244141,-88.378899"
"-0.159180,-1.033203,0.013672,4.821777,-4.821777,-84.167473"
"-0.196289,-1.008911,0.040771,-1.098633,-2.563476,-84.167473"
"-0.227417,-0.967163,0.022095,-8.850098,2.380371,-84.350578"
"-0.227173,-0.972534,-0.033569,-10.437011,6.042480,-87.219231"
"-0.210327,-1.185181,-0.165771,-5.920410,-3.662109,-81.176750"
"-0.251099,-1.171265,-0.003784,0.854492,-10.192870,-68.847656"
"-0.307495,-0.917236,0.062622,11.779784,-4.882812,-52.062984"
"-0.327393,-0.837891,0.050293,7.385253,3.417969,-59.753414"
""
"0.650391,-0.527588,-0.180298,-1.953125,18.432617,114.807121"
"0.661987,-0.624146,-0.025635,5.798339,-0.854492,102.844231"
"0.661011,-0.547241,0.023193,4.577637,-2.746582,103.271477"
"0.678589,-0.333740,0.041626,-13.671874,2.502441,84.533684"
"0.721069,-0.267456,-0.033691,-22.033689,4.577637,70.678711"
"0.741089,-0.189819,-0.052246,-25.329588,1.342773,45.532223"
"0.743652,-0.179199,-0.033447,-22.827147,-2.258301,16.357422"
"0.751587,-0.456177,-0.024536,-11.657714,-0.427246,-0.366211"
"0.743652,-0.546143,0.029297,-6.896972,-0.427246,4.333496"
"0.745117,-0.374023,0.078979,-7.690429,1.525879,11.474608"
"0.751587,-0.292236,0.055908,-19.958496,6.713867,0.549316"
"0.754883,-0.241577,0.008057,-23.498533,5.493164,-20.996092"
"0.741699,-0.274658,0.012451,-20.629881,5.187988,-31.311033"
"0.742554,-0.420410,-0.035522,-13.061522,7.690429,-49.194332"
"0.744019,-0.510498,-0.042358,0.671387,4.333496,-54.504391"
"0.724365,-0.575928,0.060425,6.652832,2.380371,-51.940914"
"0.720093,-0.537720,0.013794,1.037598,7.995605,-48.828121"
"0.713013,-0.473145,-0.090332,-9.094238,8.117676,-53.527828"
"0.699463,-0.415649,-0.077881,-7.690429,0.183105,-67.871094"
"0.677246,-0.454834,-0.082275,-5.676269,-1.220703,-79.284668"
"0.644287,-0.615601,-0.050415,-2.563476,-8.056641,-94.787590"
"0.622437,-0.761841,0.021851,2.014160,-13.610839,-96.130363"
"0.604736,-0.749023,0.060181,6.103515,-12.756347,-88.134758"
"0.568359,-0.645264,0.094727,5.004883,-9.460449,-88.012688"
"0.560669,-0.719971,-0.089355,-0.244141,0.122070,-96.923820"
"0.557007,-0.799805,-0.154053,14.343261,-8.422852,-97.778313"
"0.531372,-0.916870,-0.027710,32.775879,-20.385740,-85.693352"
"0.506592,-0.915649,0.111084,32.348633,-19.165039,-78.979492"
"0.485107,-0.800659,0.125366,22.338865,-8.483887,-70.312500"
"0.465332,-0.683228,0.155396,11.230468,7.934570,-74.768066"
"0.410522,-0.513916,-0.100952,-11.352538,7.019042,-99.731438"
"0.375244,-0.611328,-0.138550,-10.620116,-6.408691,-115.661613"
"0.341064,-0.918335,-0.173340,-6.896972,-16.357422,-136.108398"
"0.337891,-1.101318,-0.168701,9.216309,-30.761717,-125.183098"
"0.306152,-1.127686,0.086426,29.113768,-37.963867,-94.604485"
"0.250977,-0.881714,0.272705,32.836914,-27.526854,-86.181633"
"0.195557,-0.651733,0.093872,19.775391,3.906250,-93.505852"
"0.162842,-0.618774,-0.005127,-6.958007,10.070800,-125.976555"
"0.101807,-0.765137,-0.091553,-18.310547,4.150391,-143.188477"
"0.106812,-1.265747,-0.090210,-30.822752,-7.629394,-162.597641"
"0.111328,-1.401855,0.023560,-3.479004,-14.526366,-129.028320"
"0.083008,-1.212036,0.091431,25.085447,-11.657714,-84.228508"
"0.007446,-0.837402,0.096069,23.681639,-5.371093,-79.711914"
"-0.048218,-0.834473,-0.011963,10.131835,3.784179,-100.646965"
"-0.077881,-0.882080,-0.021729,-7.324218,-1.525879,-122.619621"
"-0.102661,-1.066650,-0.038208,-16.174316,-3.112793,-131.652832"
"-0.105347,-1.254883,-0.030762,-9.338379,-4.516602,-124.938957"
"-0.152222,-1.017090,0.043457,10.375976,-6.286621,-99.304192"
"-0.197754,-0.852417,0.011475,7.934570,-2.563476,-98.388664"
"-0.255005,-0.804565,-0.044434,-2.929687,0.427246,-125.793449"
"-0.245361,-1.191406,-0.123047,-9.704590,0.610352,-132.995605"
"-0.249634,-1.340454,0.025635,-9.643555,-16.601562,-112.365715"
"-0.266113,-1.246338,0.139771,3.845215,-15.930175,-78.796387"
"-0.309814,-1.018311,0.176636,5.493164,-3.967285,-72.753906"
"-0.370361,-0.848877,0.140259,5.615234,15.380858,-76.538086"
"-0.381470,-0.820190,0.053955,1.831055,26.550291,-87.890617"
"-0.380737,-0.977051,-0.124512,-14.831542,11.840819,-91.918938"
"-0.360840,-1.193237,-0.076660,-20.080564,3.112793,-86.120598"
"-0.364014,-1.139648,-0.003662,-7.080078,-4.089355,-61.584469"
"-0.392456,-0.998169,0.036133,24.353025,-2.136230,-39.916992"
"-0.428833,-0.741089,0.013550,30.700682,1.220703,-39.672852"
"-0.442871,-0.833008,-0.029175,14.953612,2.258301,-56.518551"
"-0.411011,-1.136230,-0.055420,-12.084960,-3.601074,-64.941406"
"-0.403320,-1.226563,-0.066650,-20.019531,-11.108397,-41.259762"
"-0.430908,-1.133423,-0.013550,-5.615234,-14.099120,-12.878417"
"-0.472656,-1.007935,0.014404,1.342773,-12.512206,-5.004883"
"-0.500977,-0.871948,0.050171,6.225585,-6.713867,1.281738"
"-0.498413,-0.880005,0.029419,-3.967285,0.976562,-5.249023"
"-0.461304,-1.062134,-0.047485,-11.291503,1.586914,-7.141113"
"-0.437378,-1.257568,-0.011597,-18.127441,-5.249023,5.493164"
"-0.450439,-1.225098,0.047607,-7.507324,-8.972168,37.841797"
"-0.474243,-1.114258,0.062012,4.333496,-2.441406,57.312008"
"-0.484375,-1.017578,0.040649,7.751464,0.061035,63.171383"
"-0.462402,-0.993774,-0.013794,6.958007,5.065917,66.101074"
"-0.442993,-1.046387,-0.041016,-6.896972,2.685547,66.894531"
"-0.398071,-1.254395,-0.052979,-11.840819,-0.427246,71.350098"
"-0.354858,-1.447266,-0.016968,-2.990722,-7.202148,98.754875"
"-0.350098,-1.466431,-0.031250,7.080078,-13.122558,144.592285"
"-0.415405,-1.228516,0.078491,25.207518,-15.808105,175.170883"
"-0.403442,-0.890015,0.118164,36.010742,-4.028320,176.025375"
"-0.302490,-0.853638,-0.016235,38.024902,13.122558,156.799316"
"-0.246582,-0.980347,-0.071533,9.643555,10.925292,140.197754"
"-0.166504,-1.270386,-0.105103,-0.549316,4.211426,143.981934"
"-0.132690,-1.402344,-0.121582,3.845215,-6.896972,172.790512"
"-0.140015,-1.322876,-0.094604,20.690916,-18.127441,212.402328"
"-0.143066,-0.990845,0.063232,42.785641,-15.014647,228.271469"
"-0.066895,-0.815796,0.081055,45.471188,-5.432128,222.290024"
"0.032959,-0.749268,-0.040039,28.625486,9.033203,203.796371"
"0.092407,-0.789795,-0.127563,-0.549316,11.779784,179.504379"
"0.181763,-1.028320,-0.180908,3.601074,0.000000,177.551254"
"0.212280,-0.984497,-0.051514,11.840819,-7.202148,188.415512"
"0.246460,-0.909180,0.042114,23.376463,-7.446289,199.768051"
"0.266968,-0.823853,0.058838,31.005857,1.037598,206.359848"
"0.349609,-0.714966,-0.118896,25.573729,5.065917,202.575668"
"0.398193,-0.535645,-0.044189,22.399900,-8.422852,194.030746"
"0.457397,-0.443481,-0.046387,-0.854492,-3.967285,167.480453"
"0.563843,-0.817139,-0.203613,-3.479004,-10.437011,152.832031"
"0.543823,-0.522949,0.059814,2.746582,-21.728514,165.466293"
"0.628784,-0.132935,-0.003418,-11.901855,-7.080078,149.536133"
"0.688843,-0.289063,-0.191406,-27.526854,12.207030,94.482414"
"0.725220,-0.629517,-0.218018,-18.981934,2.136230,85.998528"
"0.713867,-0.429932,0.055420,-0.305176,-14.526366,94.543449"
"0.748657,-0.287109,-0.024658,-8.544922,3.234863,81.237785"
"0.768433,-0.265381,-0.121094,-15.502929,9.094238,58.166500"
"0.784424,-0.160156,-0.152100,-17.150879,3.601074,46.874996"
"0.787598,-0.186279,-0.120117,-22.216795,-3.723144,17.028809"
"0.791870,-0.310791,-0.126343,-18.737793,-4.638672,-6.591796"
"0.787598,-0.474365,-0.078979,-8.850098,-8.178711,-6.408691"
"0.767822,-0.425293,0.065918,-6.530761,-7.629394,-3.662109"
"0.772217,-0.332886,0.049805,-14.343261,5.249023,-5.615234"
"0.776489,-0.291992,-0.027832,-18.066406,15.197753,-16.601562"
"0.782959,-0.261963,-0.108887,-14.038085,9.765625,-33.020020"
"0.771851,-0.325317,-0.125000,-11.169433,6.225585,-39.855957"
"0.765015,-0.494873,-0.137207,-2.502441,0.427246,-50.659176"
"0.764648,-0.575317,-0.128906,6.286621,-6.164550,-48.034664"
"0.756714,-0.559204,-0.031616,5.004883,-6.652832,-40.344234"
"0.744873,-0.429932,-0.021606,-1.525879,-3.906250,-40.954586"
"0.730591,-0.326782,-0.081909,-15.747069,-1.953125,-53.833004"
"0.697266,-0.377930,-0.086914,-19.653320,-8.483887,-76.477051"
"0.683228,-0.481934,-0.099121,-15.991210,-12.512206,-95.153801"
"0.671265,-0.732666,-0.097900,-2.197266,-17.700195,-91.979973"
"0.645996,-0.771362,0.049194,4.211426,-19.409180,-84.289543"
"0.619873,-0.624756,0.118652,7.080078,-8.911133,-73.608398"
"0.607300,-0.550293,0.065308,-2.380371,7.995605,-80.505363"
"0.602539,-0.619751,-0.089233,-4.699707,9.643555,-94.726555"
"0.582397,-0.721191,-0.131470,-0.610352,4.211426,-95.214836"
"0.530396,-0.658936,-0.030029,8.056641,-6.774902,-93.200676"
"0.506836,-0.603149,0.032471,2.807617,-4.821777,-104.125969"
""
"-0.272217,-1.136475,-0.027710,-1.647949,7.141113,73.364258"
"-0.258057,-1.195068,-0.002075,-3.540039,3.906250,84.411613"
"-0.257935,-1.228394,0.038696,2.868652,4.333496,99.182121"
"-0.241821,-1.170532,0.081055,13.244628,15.502929,113.769524"
"-0.198364,-1.103760,-0.063110,15.808105,19.592285,117.248528"
"-0.143433,-1.190796,-0.114380,17.761230,12.939452,121.582024"
"-0.120972,-1.272461,-0.076416,19.409180,2.014160,135.009766"
"-0.073364,-1.441650,-0.061157,17.211914,0.183105,147.277832"
"-0.123779,-1.222412,0.110107,15.686034,-7.019042,185.852036"
"-0.130981,-0.954590,0.162476,22.521971,9.216309,201.049789"
"-0.036743,-0.696533,-0.019043,12.512206,29.357908,168.334946"
"0.100464,-1.064331,-0.255005,3.295898,30.517576,151.489258"
"0.144897,-1.266724,-0.193970,3.784179,13.061522,158.020020"
"0.149048,-1.269043,-0.123291,14.526366,-1.098633,189.941391"
"0.139648,-1.008667,0.052246,18.615723,-4.150391,206.115707"
"0.201416,-0.715332,0.031982,23.010252,5.187988,215.576157"
"0.254272,-0.664795,-0.096802,6.103515,13.244628,197.998032"
"0.342896,-0.662842,-0.156982,-10.986327,2.441406,179.748520"
"0.420044,-0.665039,-0.092407,-14.282226,1.037598,172.058090"
"0.472168,-0.655029,-0.028931,-10.742187,0.366211,161.499008"
"0.497925,-0.561523,-0.023315,-14.770507,1.586914,154.113770"
"0.562012,-0.502686,-0.110107,-19.042969,2.380371,143.310547"
"0.612427,-0.491821,-0.090454,-22.644041,-5.371093,124.999992"
"0.644653,-0.467407,0.004395,-17.700195,-8.666992,110.534660"
"0.661987,-0.396973,0.000366,-10.864257,-1.525879,97.106926"
"0.702026,-0.318481,-0.042969,-13.305663,-0.976562,85.571281"
"0.722656,-0.275513,-0.046265,-23.803709,-5.004883,61.584469"
"0.729004,-0.244751,-0.008423,-25.512693,-8.972168,39.306641"
"0.736694,-0.175781,0.029663,-22.338865,-4.577637,12.207030"
"0.741089,-0.375732,-0.005737,-15.930175,-1.708984,-7.934570"
"0.742432,-0.528320,0.026367,-10.253905,-0.061035,-7.324218"
"0.746216,-0.439819,0.011108,-3.601074,6.225585,-1.831055"
"0.747559,-0.385986,-0.015259,-7.202148,6.958007,-6.530761"
"0.739136,-0.260986,-0.007935,-7.141113,4.943848,-12.573241"
"0.726685,-0.252197,-0.005615,-8.056641,5.493164,-33.569336"
"0.722656,-0.435303,-0.065186,-8.789063,5.737304,-55.786129"
"0.722290,-0.536011,-0.082397,5.187988,4.516602,-60.974117"
"0.709595,-0.603394,-0.055786,10.375976,2.807617,-58.349606"
"0.689453,-0.524902,0.029907,11.230468,1.159668,-54.077145"
"0.684326,-0.473022,0.016479,6.774902,8.789063,-60.424801"
"0.669312,-0.394653,-0.077026,3.356933,8.605957,-76.660156"
"0.635010,-0.415649,-0.121948,1.770019,3.845215,-87.280266"
"0.589233,-0.549438,-0.079468,4.028320,-5.981445,-106.567375"
"0.569336,-0.632935,-0.069702,12.268065,-8.361816,-114.746086"
"0.543823,-0.799927,-0.011841,14.648437,-8.789063,-114.257805"
"0.525635,-0.827637,0.049683,16.235352,-5.187988,-104.614250"
"0.513916,-0.742676,-0.037109,15.991210,5.676269,-98.754875"
"0.503052,-0.723511,-0.123535,18.676758,6.652832,-102.478020"
"0.448364,-0.715576,-0.075439,22.766111,2.929687,-106.750481"
"0.403320,-0.805908,-0.216187,15.991210,5.493164,-117.553703"
"0.395264,-0.890137,-0.120850,11.535644,-16.174316,-119.262688"
"0.361450,-0.911499,0.028564,13.488769,-5.126953,-111.999504"
"0.319946,-0.824707,-0.055664,10.009766,-0.305176,-111.755363"
"0.277344,-0.847900,-0.065552,4.028320,-0.976562,-117.797844"
"0.245850,-0.837402,-0.041870,-2.441406,-2.441406,-124.145500"
"0.196289,-0.872559,-0.062012,-5.187988,0.244141,-132.324219"
"0.163696,-0.967896,-0.112427,-2.075195,0.976562,-134.033203"
"0.128906,-1.039551,-0.120117,0.610352,-3.234863,-132.263184"
"0.106812,-1.064697,-0.071167,-2.502441,-12.268065,-126.037590"
"0.067017,-1.053833,0.035889,0.061035,-7.812500,-115.722649"
"-0.001343,-0.883179,0.031616,-2.380371,-2.441406,-114.379875"
"-0.080444,-0.827515,0.013306,-12.756347,4.760742,-129.089355"
"-0.099609,-0.899170,-0.000732,-13.183593,9.521484,-147.766113"
"-0.087891,-1.166016,-0.168091,-14.404296,13.000487,-150.268555"
"-0.099365,-1.345337,-0.224365,-23.803709,-0.183105,-135.253906"
"-0.175171,-1.166748,0.066162,-8.728027,-20.141600,-103.088371"
"-0.210449,-1.067871,0.140503,8.850098,-3.112793,-93.872063"
"-0.250732,-0.945923,0.057251,2.807617,7.019042,-96.496574"
"-0.244385,-1.044800,-0.092041,-23.620604,10.986327,-107.666008"
"-0.223877,-1.241333,-0.116699,-34.851074,2.380371,-106.628410"
"-0.229004,-1.398926,0.013428,-13.793944,-2.258301,-68.176270"
"-0.277100,-1.071289,0.069458,-1.403808,3.662109,-52.307125"
"-0.322144,-0.788696,-0.046753,6.408691,14.953612,-49.194332"
"-0.344727,-0.747070,-0.063843,-3.540039,10.131835,-68.725586"
"-0.342896,-0.960205,-0.057129,-7.873535,5.554199,-81.603996"
"-0.295532,-1.248169,-0.098389,-8.117676,2.929687,-75.256348"
"-0.313721,-1.195435,0.015747,-4.394531,-5.920410,-45.837399"
"-0.331909,-1.104126,0.082886,5.493164,-1.281738,-24.047850"
"-0.375244,-0.869629,0.048828,2.502441,6.774902,-22.033689"
"-0.394531,-0.829712,-0.020630,-2.258301,7.263183,-28.015135"
"-0.378174,-1.003052,-0.047974,-12.878417,3.479004,-37.780762"
"-0.362671,-1.096191,-0.052246,-19.348145,-0.183105,-31.066893"
"-0.344727,-1.191528,-0.078979,-11.596679,-6.958007,-7.019042"
"-0.381836,-1.046509,0.034424,-3.601074,-10.803222,4.394531"
"-0.410034,-0.896973,0.099487,2.807617,-5.554199,10.559081"
"-0.401733,-0.923096,0.066895,-3.540039,5.981445,3.479004"
"-0.385132,-1.020508,-0.024414,-5.859375,7.324218,4.760742"
"-0.370728,-1.080566,-0.085449,-7.446289,2.807617,13.488769"
"-0.367432,-1.117310,-0.067383,-6.408691,-6.469726,25.756834"
"-0.366821,-1.171875,0.031372,1.831055,-7.324218,42.175289"
"-0.358154,-1.229614,0.034424,3.845215,-5.554199,50.659176"
"-0.360962,-1.229736,0.056030,5.126953,-4.089355,71.289062"
"-0.367920,-1.205322,0.060303,5.737304,0.183105,89.843742"
"-0.366699,-1.077637,0.089966,1.037598,6.713867,100.646965"
"-0.318481,-1.058228,-0.004883,0.366211,10.864257,99.243156"
"-0.260376,-1.312256,-0.064575,10.131835,9.765625,101.806633"
"-0.245972,-1.377319,-0.067749,20.263670,1.770019,130.432129"
"-0.267456,-1.229126,0.021729,32.287598,-6.042480,160.339355"
"-0.244995,-1.009521,0.052734,37.841797,-5.981445,166.198715"
"-0.173218,-0.977905,0.018921,27.954100,-2.685547,157.958984"
"-0.138184,-1.061401,0.010376,23.925779,4.089355,143.127441"
"-0.079834,-1.254150,-0.023315,29.663084,7.995605,144.714355"
"-0.047363,-1.283203,-0.056519,34.851074,14.099120,172.241196"
"-0.040649,-1.193604,-0.076172,33.203125,15.991210,203.430161"
"-0.004517,-1.055786,-0.078979,38.757324,14.648437,212.646469"
"0.050415,-0.977173,-0.128540,35.949707,13.610839,214.294418"
"0.124268,-0.887207,-0.159912,23.132322,8.178711,212.402328"
"0.156372,-0.825928,-0.168579,11.169433,3.662109,203.918442"
"0.254028,-0.885986,-0.265137,4.516602,1.037598,195.373520"
"0.278076,-0.860840,-0.027100,22.766111,-17.272949,196.899399"
"0.307617,-0.670288,0.067993,30.334471,-8.178711,202.453598"
"0.391968,-0.493042,-0.021729,21.667479,11.291503,181.396469"
"0.508057,-0.471313,-0.279541,17.395020,13.732909,167.114243"
"0.553467,-0.499390,-0.194092,28.076170,-3.906250,144.531250"
"0.572021,-0.529053,-0.072388,19.653320,-15.869140,126.953117"
"0.630127,-0.614746,-0.083008,9.338379,-9.277344,122.314445"
"0.648315,-0.329956,-0.136475,2.624511,-3.112793,122.070305"
"0.664673,-0.208740,-0.101929,-1.281738,-7.690429,96.191399"
"0.708252,-0.209595,-0.138306,-6.225585,-6.530761,79.284668"
"0.737549,-0.188965,-0.225708,-16.906738,-7.873535,53.039547"
"0.724609,-0.109863,-0.057983,-18.981934,-21.911619,25.939939"
"0.728149,-0.149292,-0.023071,-29.479979,-15.624999,-7.873535"
"0.740479,-0.469849,-0.103638,-32.165527,-10.742187,-19.714355"
"0.731079,-0.525879,-0.001343,-23.986814,-11.962890,-14.709472"
"0.734863,-0.368286,-0.016846,-21.545408,-2.685547,-4.821777"
"0.737305,-0.286499,-0.067627,-15.869140,3.967285,-11.352538"
"0.732422,-0.151245,-0.037231,-12.573241,2.990722,-20.263670"
"0.707031,-0.059814,-0.086670,-20.446775,4.150391,-49.255367"
""
"-0.361206,-1.177979,-0.114502,-11.962890,-5.615234,-0.671387"
"-0.381470,-1.217163,-0.000122,-7.324218,-8.911133,13.854980"
"-0.424316,-0.973022,0.042114,9.155273,-5.065917,40.039062"
"-0.422485,-0.919189,-0.018555,2.136230,1.403808,39.123535"
"-0.407349,-0.986328,-0.033813,-11.291503,1.770019,34.057617"
"-0.365356,-1.192993,-0.062378,-11.779784,1.220703,37.902832"
"-0.330078,-1.371582,-0.091309,-5.432128,-2.685547,60.302731"
"-0.348755,-1.446045,-0.036621,2.563476,-9.887695,94.970695"
"-0.378418,-1.328613,0.059448,17.150879,-8.911133,131.591797"
"-0.381958,-1.036377,0.073364,23.376463,0.183105,140.197754"
"-0.330200,-0.931152,-0.094238,19.287109,13.000487,138.549805"
"-0.293213,-0.991943,-0.161865,0.915527,2.990722,128.662109"
"-0.223145,-1.234253,-0.139038,-3.601074,-5.310058,130.249023"
"-0.180542,-1.355347,-0.101929,7.812500,-14.038085,153.991699"
"-0.169067,-1.374023,-0.114624,24.719236,-19.958496,188.232407"
"-0.178467,-1.201050,0.004639,39.428711,-26.123045,214.111313"
"-0.142090,-0.905273,0.088257,44.006344,-20.385740,214.660629"
"-0.024048,-1.020020,-0.118530,32.165527,-1.770019,195.312485"
"0.014160,-1.144409,-0.170532,25.451658,-4.882812,194.091782"
"0.044678,-1.202759,-0.119873,27.465818,-10.620116,205.200180"
"0.081299,-1.109131,-0.042847,50.292965,-14.587401,230.957016"
"0.109253,-1.012573,-0.037476,77.087402,-9.826660,248.840317"
"0.184326,-0.837646,-0.120117,74.768066,-7.934570,244.506821"
"0.261475,-0.775391,-0.178955,63.537594,-10.681151,238.342270"
"0.341553,-0.705811,-0.223022,40.405270,-20.141600,227.844223"
"0.387451,-0.635742,-0.206421,48.767086,-24.719236,219.238266"
"0.493896,-0.521606,-0.251221,50.354000,-22.827147,200.927719"
"0.556519,-0.475708,-0.317871,49.133297,-28.198240,192.321762"
"0.615112,-0.110107,-0.130615,45.043941,-45.715328,175.231918"
"0.650269,-0.045776,-0.073608,16.235352,-36.743164,123.840324"
"0.698730,-0.261353,-0.146484,-0.793457,-30.517576,98.693840"
"0.714478,-0.309204,-0.131836,-16.113281,-32.653809,76.049805"
"0.736938,-0.269409,-0.066406,-22.155760,-32.470703,62.499996"
"0.753296,-0.263672,-0.069458,-30.700682,-23.132322,48.034664"
"0.766846,-0.251221,-0.084106,-29.235838,-20.202635,42.114254"
"0.790527,-0.150269,-0.064087,-21.118162,-20.202635,30.883787"
"0.797729,-0.095581,-0.045654,-18.554687,-18.676758,11.047362"
"0.786987,-0.113770,-0.011963,-27.465818,-15.991210,-15.136718"
"0.781250,-0.200562,-0.030762,-30.151365,-14.953612,-25.512693"
"0.779053,-0.313354,-0.046021,-29.785154,-13.244628,-39.916992"
"0.771973,-0.336548,-0.032837,-28.137205,-12.573241,-43.945309"
"0.756714,-0.318970,-0.006592,-25.756834,-9.643555,-48.522945"
"0.743286,-0.280762,0.036865,-24.658201,-6.164550,-52.612301"
"0.768799,-0.389771,-0.073242,-21.118162,8.300781,-65.979004"
"0.778320,-0.458740,-0.125854,-12.634276,9.582520,-71.655273"
"0.759521,-0.438232,-0.148682,-15.502929,-4.028320,-75.012207"
"0.723267,-0.387329,-0.099121,-16.723633,-9.094238,-81.237785"
"0.688477,-0.507202,-0.029053,-11.901855,-12.390136,-97.045891"
"0.667114,-0.559326,0.016479,-11.901855,-9.399414,-104.431145"
"0.645630,-0.683960,0.007324,-14.282226,-4.211426,-106.872551"
"0.651855,-0.805786,-0.105591,-14.526366,2.929687,-104.125969"
"0.645630,-0.791504,-0.114136,-9.338379,-4.089355,-91.308586"
"0.612549,-0.638184,-0.066040,0.488281,-7.690429,-89.599602"
"0.561157,-0.558716,0.035645,5.249023,-3.417969,-103.759758"
"0.507568,-0.574829,0.095337,5.676269,2.319336,-111.633293"
"0.484741,-0.733398,-0.077637,-0.122070,17.272949,-126.159660"
"0.481445,-0.848389,-0.182861,-2.746582,12.817382,-128.173828"
"0.462891,-0.922119,-0.067139,-7.812500,6.042480,-115.356438"
"0.413818,-0.766357,-0.129883,-18.188477,1.098633,-112.487785"
"0.350342,-0.787720,0.104370,-12.939452,-13.122558,-122.680656"
"0.323730,-0.853027,0.098389,-13.671874,3.356933,-130.187988"
"0.319336,-1.120239,-0.008301,-16.906738,9.155273,-121.704094"
"0.313843,-1.090454,-0.036133,-13.793944,9.643555,-109.497063"
"0.251099,-0.908325,-0.025269,-2.685547,9.155273,-93.627922"
"0.229248,-0.837891,-0.043701,10.742187,12.268065,-98.632805"
"0.179565,-0.743530,-0.055420,6.103515,7.629394,-119.262688"
"0.106201,-0.772583,-0.020020,-4.760742,6.408691,-131.530762"
"0.087524,-1.117065,-0.074463,-20.996092,4.150391,-146.850586"
"0.100830,-1.293091,-0.052734,-11.596679,-2.502441,-129.394531"
"0.093506,-1.313110,0.077637,-2.990722,-2.563476,-110.900871"
"0.006470,-0.887451,0.099609,13.793944,9.399414,-81.176750"
"-0.029053,-0.686646,0.053589,15.319823,21.423338,-96.740715"
"-0.104004,-0.632080,-0.043335,-0.732422,17.333984,-131.469727"
"-0.128174,-0.920166,-0.169922,-12.023925,13.183593,-145.996094"
"-0.114258,-1.323730,-0.159790,-20.568846,-4.943848,-149.414062"
"-0.124390,-1.343384,-0.025757,2.075195,-16.601562,-115.661613"
"-0.176514,-1.094238,0.107666,12.512206,1.281738,-90.637199"
"-0.242676,-0.795044,0.005005,9.094238,6.469726,-92.163078"
"-0.262451,-0.957642,-0.100220,-1.647949,6.103515,-113.220207"
"-0.279419,-1.104248,-0.098022,-20.080564,-3.295898,-118.530266"
"-0.299805,-1.286865,-0.057129,-25.695799,-6.286621,-110.290520"
"-0.310181,-1.316406,-0.066162,-23.925779,-7.141113,-84.289543"
"-0.342529,-1.237061,0.030029,-2.807617,-7.446289,-57.250973"
"-0.361572,-1.108032,0.058350,17.150879,1.281738,-37.780762"
"-0.367432,-0.903564,-0.018188,10.009766,6.164550,-40.649410"
"-0.369873,-0.928223,-0.058594,1.403808,3.479004,-45.532223"
"-0.360474,-1.074707,-0.044800,-12.084960,-2.380371,-49.987789"
"-0.360352,-1.100952,-0.016113,-8.361816,-4.882812,-37.719727"
"-0.362305,-1.056030,0.026245,-2.563476,-3.723144,-29.541014"
"-0.368774,-0.955200,-0.002686,3.601074,0.000000,-18.005371"
"-0.372803,-0.918091,-0.009521,5.126953,0.000000,-15.014647"
"-0.376099,-0.923950,-0.028931,-1.770019,-0.549316,-15.930175"
"-0.375000,-0.987061,-0.064087,-4.943848,-1.892090,-14.831542"
"-0.368896,-1.061157,-0.014526,-4.577637,-5.187988,-9.033203"
"-0.373047,-1.062744,0.017334,-0.793457,-1.953125,2.685547"
"-0.385986,-0.969360,-0.007935,-0.427246,2.258301,9.338379"
"-0.394897,-0.952393,-0.015015,-1.892090,1.342773,9.582520"
"-0.395264,-0.979126,-0.006470,-4.638672,0.976562,11.535644"
"-0.386353,-1.051636,-0.034546,-5.187988,0.549316,18.920898"
"-0.373901,-1.147461,-0.023071,-4.089355,-0.915527,24.963377"
"-0.364380,-1.146973,0.016724,-0.305176,-2.380371,42.724606"
"-0.355835,-1.140869,0.012573,2.990722,0.793457,57.373043"
"-0.342773,-1.178711,-0.007568,9.399414,2.807617,74.401855"
"-0.344604,-1.074341,-0.034546,10.070800,2.990722,82.397453"
"-0.311035,-1.133545,-0.053589,5.615234,1.525879,87.341301"
"-0.290771,-1.212280,-0.057861,8.239746,-1.586914,100.524895"
"-0.285156,-1.189453,0.015747,9.826660,-3.417969,111.999504"
"-0.260986,-1.155151,0.022095,9.582520,3.295898,127.624504"
"-0.227661,-1.079834,-0.040894,16.113281,8.300781,142.578125"
"-0.205688,-1.037964,-0.078003,23.315428,7.629394,148.864746"
"-0.127197,-1.155029,-0.196533,23.376463,5.737304,148.437500"
"-0.098877,-1.299072,-0.126953,29.724119,-8.911133,161.926254"
"-0.101685,-1.269653,-0.051025,42.785641,-15.869140,190.612778"
"-0.079102,-1.180420,-0.033081,43.884274,-12.939452,200.317368"
"-0.048462,-1.018433,-0.016846,42.053219,-9.521484,213.623032"
"0.043091,-0.771851,-0.095703,33.630371,-8.422852,214.416489"
"0.094604,-0.798706,-0.163940,27.832029,-8.300781,192.382797"
"0.174927,-0.966919,-0.216064,29.785154,-12.329101,186.828598"
"0.218384,-1.062500,-0.138916,38.146973,-22.827147,191.772446"
"0.240479,-1.029907,-0.085693,41.320797,-27.160643,209.289536"
"0.270874,-0.703003,-0.017334,29.663084,-20.080564,210.998520"
"0.376099,-0.451172,-0.073364,20.690916,-11.291503,194.519028"
"0.492554,-0.674805,-0.224121,5.981445,3.417969,151.000977"
"0.522461,-0.751709,-0.218994,12.207030,-0.915527,140.197754"
"0.538330,-0.711914,-0.073242,18.127441,-5.859375,143.432617"
"0.565796,-0.516357,-0.021362,13.671874,-1.953125,142.517090"
"0.623657,-0.401489,-0.148560,4.272461,8.483887,127.014153"
"0.649902,-0.377563,-0.177002,-0.610352,2.563476,105.712883"
""
"-0.098145,-1.166992,-0.171753,-21.484373,-2.319336,-64.941406"
"-0.103882,-1.176514,-0.024658,-9.338379,-2.868652,-43.640133"
"-0.119141,-0.991089,-0.057007,-0.366211,2.258301,-34.362793"
"-0.157471,-0.884399,-0.046753,-1.953125,0.488281,-36.682129"
"-0.180786,-0.954590,-0.029419,-10.009766,-0.671387,-46.874996"
"-0.183228,-1.029907,-0.054932,-12.451171,2.685547,-49.865719"
"-0.174805,-1.167114,-0.111206,-12.390136,2.502441,-46.447750"
"-0.176880,-1.180664,-0.054443,-9.155273,-2.868652,-30.456541"
"-0.182739,-1.145752,-0.028931,-1.770019,-3.051758,-13.549804"
"-0.202881,-1.037598,-0.006958,4.516602,-0.610352,-4.821777"
"-0.218018,-0.966675,-0.009644,3.112793,1.098633,-5.737304"
"-0.213013,-1.013672,-0.053833,-2.807617,4.272461,-9.521484"
"-0.209595,-1.022339,-0.078857,-4.577637,3.540039,-7.080078"
"-0.201782,-1.048340,-0.101563,-4.089355,-1.525879,-3.173828"
"-0.192627,-1.126831,-0.034790,-1.708984,-3.295898,0.549316"
"-0.198486,-1.081543,-0.009033,3.112793,-1.220703,13.610839"
"-0.200928,-1.044434,-0.031250,1.281738,1.525879,20.385740"
"-0.193726,-1.042480,-0.057861,-3.295898,0.183105,22.155760"
"-0.177856,-1.145020,-0.072144,-2.014160,-0.915527,24.475096"
"-0.168213,-1.206787,-0.039673,6.591796,-3.417969,37.353516"
"-0.170410,-1.179810,-0.034668,14.038085,-2.563476,55.297848"
"-0.174316,-1.036499,-0.031006,12.451171,-1.220703,61.950680"
"-0.162842,-1.004517,-0.032837,10.803222,-0.610352,61.035152"
"-0.140137,-0.972778,-0.025146,7.568359,1.403808,59.814449"
"-0.119019,-1.002563,-0.056030,1.708984,4.394531,55.908199"
"-0.068970,-1.145996,-0.131714,1.708984,-0.244141,62.499996"
"-0.033691,-1.280762,-0.138794,5.126953,-5.798339,72.082520"
"-0.033203,-1.306519,-0.022949,18.493652,-14.648437,98.510735"
"-0.043213,-1.235474,0.042480,32.104492,-8.178711,125.244133"
"-0.045166,-1.011841,0.032349,31.921385,8.300781,132.385254"
"0.005859,-0.883545,-0.095337,26.733397,11.596679,127.990715"
"0.068970,-0.989502,-0.135620,16.723633,7.507324,114.685051"
"0.095215,-1.040527,-0.180908,15.869140,1.892090,115.356438"
"0.138062,-1.187134,-0.183472,31.127928,-9.277344,131.347656"
"0.139893,-1.137573,-0.064209,36.865234,-11.901855,142.211914"
"0.150635,-0.906250,0.085327,45.227047,-5.493164,154.968262"
"0.191650,-0.799438,0.003296,38.208008,18.493652,146.728516"
"0.285156,-0.829468,-0.301880,31.188963,21.545408,137.084961"
"0.341797,-1.150757,-0.323242,27.465818,4.028320,127.014153"
"0.319824,-1.242920,-0.000488,30.517576,-15.991210,151.794434"
"0.314331,-1.172729,0.078735,27.282713,0.671387,186.035141"
"0.320557,-0.701782,-0.088379,24.963377,14.648437,196.655258"
"0.447388,-0.305054,-0.360718,20.690916,26.916502,178.100571"
"0.512939,-0.368408,-0.431885,19.165039,17.333984,128.784180"
"0.588135,-0.677979,-0.428589,11.230468,-12.451171,109.924309"
"0.581055,-0.756470,-0.117920,7.507324,-22.583006,112.609856"
"0.598633,-0.577881,-0.149048,-4.516602,-11.901855,118.164055"
"0.628052,-0.483887,-0.211426,-12.878417,-8.056641,108.581535"
"0.666260,-0.279297,-0.235474,-20.446775,-14.099120,83.435051"
"0.706543,-0.375854,-0.212769,-20.446775,-17.639160,67.626953"
"0.729492,-0.404053,-0.162231,-14.160155,-19.165039,49.621578"
"0.718140,-0.365845,-0.094482,-14.587401,-17.272949,36.743164"
"0.716431,-0.363403,-0.071533,-19.897461,-13.122558,22.033689"
"0.734009,-0.497803,-0.145508,-20.324705,-10.192870,15.563964"
"0.733643,-0.484375,-0.101807,-13.793944,-11.352538,15.441894"
"0.732422,-0.402222,-0.065430,-18.066406,-9.887695,13.244628"
"0.740234,-0.348267,-0.075562,-20.935057,-6.286621,1.892090"
"0.738892,-0.327515,-0.050659,-19.714355,-6.164550,-2.868652"
"0.736084,-0.283569,-0.050415,-18.737793,-3.417969,-15.502929"
"0.734375,-0.308350,-0.069580,-19.409180,-0.488281,-33.813477"
"0.721802,-0.456421,-0.062744,-13.916015,1.647949,-43.029781"
"0.718872,-0.518799,-0.056396,-7.019042,4.028320,-41.992184"
"0.709106,-0.438110,-0.093384,3.540039,7.995605,-39.672852"
"0.703735,-0.429321,-0.107300,3.051758,7.385253,-47.973629"
"0.695068,-0.436768,-0.149536,-1.708984,5.065917,-60.180660"
"0.679932,-0.507568,-0.139893,-0.793457,3.662109,-66.894531"
"0.666382,-0.582153,-0.140625,6.286621,4.211426,-76.293945"
"0.648071,-0.577881,-0.118896,9.704590,3.051758,-82.275383"
"0.607300,-0.550049,-0.043945,7.080078,7.995605,-92.224113"
"0.572876,-0.612061,-0.128540,4.028320,12.207030,-99.060051"
"0.562500,-0.823730,-0.239380,4.394531,14.160155,-106.567375"
"0.562500,-0.900269,-0.256836,19.042969,10.009766,-95.825188"
"0.538208,-0.794678,-0.187256,33.813477,6.835937,-80.383293"
"0.486206,-0.633789,-0.061401,30.700682,7.080078,-82.214348"
"0.451538,-0.654907,-0.083618,0.610352,19.836426,-99.609367"
"0.435425,-0.722046,-0.257324,-32.104492,20.446775,-114.074699"
"0.445312,-1.040649,-0.348877,-17.883301,6.713867,-112.365715"
"0.438477,-1.190308,-0.273438,-1.342773,2.014160,-96.069328"
"0.386108,-0.878906,-0.057129,10.314940,-5.615234,-63.537594"
"0.356934,-0.764771,-0.008301,3.540039,8.422852,-65.551758"
"0.326538,-0.616089,-0.095093,-14.526366,19.958496,-87.219231"
"0.287598,-0.693237,-0.191650,-26.977537,18.432617,-101.379387"
"0.256470,-1.043945,-0.211670,-40.527340,10.070800,-120.178215"
"0.252808,-1.223145,-0.180420,-34.729004,0.671387,-107.055656"
"0.244141,-1.167725,-0.106445,-13.427733,-3.723144,-80.627434"
"0.199341,-0.884033,0.012451,-2.868652,1.647949,-73.425293"
"0.147827,-0.746948,-0.049072,-2.258301,15.380858,-82.336418"
"0.100220,-0.795410,-0.113403,-16.113281,16.235352,-104.003899"
"0.087036,-0.865479,-0.166260,-29.968260,11.413573,-120.300285"
"0.075073,-1.098145,-0.189819,-30.090330,0.793457,-115.905754"
"0.053223,-1.182739,-0.113281,-24.291990,-4.394531,-105.957024"
"0.015747,-1.104126,-0.012573,-5.859375,-4.943848,-85.449211"
"0.002808,-1.040894,-0.021118,-1.647949,6.713867,-77.270508"
"-0.023437,-0.966675,-0.091064,-28.137205,10.375976,-83.557121"
"-0.060669,-0.993652,-0.060303,-38.024902,8.361816,-86.914055"
"-0.096191,-1.000244,-0.128174,-44.311520,8.361816,-88.134758"
"-0.107544,-1.066772,-0.161133,-41.564938,-1.586914,-86.914055"
"-0.136353,-1.133667,-0.023071,-15.624999,-4.211426,-75.256348"
"-0.147217,-1.077026,-0.036743,-3.051758,3.662109,-70.251465"
"-0.154419,-1.057983,-0.156372,5.554199,9.887695,-65.307617"
"-0.181274,-1.089966,-0.075928,-2.380371,-1.159668,-62.561031"
"-0.188599,-1.119995,-0.043091,-14.221190,-4.760742,-55.664059"
"-0.198608,-1.118774,-0.011841,-15.136718,-4.333496,-49.560543"
"-0.201904,-1.058350,-0.042725,-13.610839,0.671387,-39.978027"
"-0.210693,-1.013672,-0.091919,-7.202148,4.577637,-34.606934"
"-0.219727,-0.985962,-0.105591,0.488281,1.586914,-30.822752"
"-0.231323,-0.984375,-0.121094,-0.854492,-4.882812,-33.569336"
"-0.230835,-1.123779,-0.049072,-2.807617,-8.483887,-32.409668"
"-0.244995,-1.132446,0.010376,-5.065917,-8.972168,-19.042969"
"-0.263428,-1.008667,0.022217,-4.272461,-2.746582,-6.652832"
"-0.269531,-0.950073,-0.011841,-8.117676,3.417969,-6.469726"
"-0.265625,-0.981689,-0.078857,-6.652832,2.990722,-9.277344"
"-0.249390,-1.090332,-0.087891,1.586914,-1.953125,-8.422852"
"-0.231689,-1.259277,-0.060059,2.685547,-6.958007,0.793457"
"-0.234375,-1.271362,-0.009766,2.197266,-8.361816,24.047850"
"-0.251953,-1.205444,0.024780,1.770019,-5.981445,34.301758"
"-0.263550,-1.141724,0.019287,4.455566,-0.061035,48.583981"
"-0.263672,-1.129395,-0.017944,1.525879,4.028320,56.518551"
"-0.253906,-1.091553,-0.063354,-4.577637,1.342773,61.157223"
"-0.213623,-1.192627,-0.123169,-5.615234,-1.647949,61.523434"
"-0.179565,-1.372437,-0.080322,4.211426,-11.657714,74.462891"
"-0.173706,-1.399658,-0.056274,24.291990,-17.456055,106.140129"
"-0.170898,-1.367798,0.010498,33.020020,-17.517090,135.803223"
"-0.167603,-1.269043,0.027954,33.691406,-12.756347,146.545410"
"-0.128418,-1.176392,-0.068359,44.982906,-1.953125,162.475571"
"-0.103271,-1.114502,-0.102661,54.077145,-2.502441,172.729477"
"-0.036133,-1.138550,-0.184692,46.203609,-12.390136,176.940903"
"0.014526,-1.196899,-0.202881,41.137691,-19.958496,184.448227"
""
"0.170654,-1.267700,0.212524,9.948730,5.249023,-77.087402"
"0.127930,-0.916016,0.114136,9.033203,26.611326,-64.941406"
"0.059204,-0.665771,0.020996,-8.728027,28.076170,-92.712395"
"0.049438,-0.995605,-0.166870,-17.150879,26.977537,-109.619133"
"0.051025,-1.227783,-0.188721,-19.409180,11.169433,-110.961906"
"0.047119,-1.269043,-0.125366,-8.361816,-3.479004,-89.294426"
"0.009521,-1.209717,0.050415,8.850098,-1.281738,-62.438961"
"-0.034790,-0.991943,0.093628,12.573241,2.868652,-54.992672"
"-0.070068,-0.910278,0.036133,2.075195,12.573241,-61.218258"
"-0.078613,-0.956055,-0.010132,-14.282226,16.052246,-75.988770"
"-0.072510,-1.087036,-0.060303,-17.028809,12.695312,-75.805664"
"-0.067627,-1.193481,-0.112671,-17.944336,10.742187,-71.228027"
"-0.098145,-1.150024,0.009033,-3.051758,3.417969,-52.185055"
"-0.111450,-1.057495,0.033936,12.939452,8.972168,-37.536621"
"-0.142700,-0.921997,-0.030151,2.563476,9.460449,-44.555660"
"-0.165527,-0.952026,-0.080200,-3.662109,6.591796,-51.147457"
"-0.171387,-1.094116,-0.075928,-8.972168,-1.464844,-58.288570"
"-0.171753,-1.188965,-0.009888,-4.760742,-6.530761,-51.635738"
"-0.175171,-1.230591,0.078857,-1.037598,-3.784179,-40.893551"
"-0.182373,-1.080322,0.033203,-0.244141,3.540039,-19.897461"
"-0.196777,-1.007080,-0.010376,-7.812500,4.272461,-15.197753"
"-0.204224,-1.001099,-0.025879,-7.995605,2.014160,-15.747069"
"-0.211182,-1.007935,-0.032593,-4.455566,0.549316,-16.174316"
"-0.200684,-1.071899,-0.026855,3.173828,-0.854492,-15.319823"
"-0.193970,-1.103271,-0.013550,2.319336,-2.075195,-8.850098"
"-0.195923,-1.079956,0.026489,-5.493164,-0.061035,0.732422"
"-0.208496,-1.042603,0.001587,-6.591796,0.610352,3.784179"
"-0.209839,-1.051636,0.003296,1.403808,0.427246,8.239746"
"-0.203369,-1.095093,-0.031860,2.685547,2.990722,10.314940"
"-0.187134,-1.245605,-0.036377,5.981445,-1.098633,23.559568"
"-0.184082,-1.264404,-0.023437,9.582520,-2.319336,35.217285"
"-0.192017,-1.167114,0.013306,15.441894,-5.004883,54.504391"
"-0.195435,-1.134399,0.037598,16.113281,-4.333496,64.270020"
"-0.176880,-1.136353,-0.008911,14.770507,-2.807617,67.260742"
"-0.139893,-1.243530,-0.072998,11.718749,-5.371093,74.707031"
"-0.126221,-1.302246,-0.071533,22.644041,-11.535644,92.285149"
"-0.095703,-1.387939,-0.034058,46.447750,-15.197753,121.826164"
"-0.091064,-1.346191,0.030762,53.344723,-17.089844,138.000488"
"-0.084106,-1.161499,0.013306,47.119137,-14.282226,161.499008"
"-0.067017,-1.095215,-0.015381,30.639647,-8.605957,166.137680"
"-0.009277,-1.145142,-0.192871,25.268553,-5.432128,164.489731"
"0.045898,-1.227905,-0.189331,35.034180,-15.808105,171.691879"
"0.064209,-1.239624,-0.124268,55.236813,-25.512693,191.345200"
"0.103882,-1.039551,-0.048462,60.729977,-19.775391,206.787094"
"0.179687,-1.047852,-0.223511,55.541988,-20.141600,206.420883"
"0.204590,-0.820435,-0.158081,48.889156,-37.963867,214.172348"
"0.278076,-0.610229,-0.039307,50.109859,-38.208008,199.707016"
"0.325317,-0.614380,-0.034302,41.381832,-17.822266,169.616684"
"0.419800,-0.698120,-0.187744,28.564451,-6.958007,152.587891"
"0.476440,-0.685913,-0.271729,25.512693,-11.535644,151.794434"
"0.527222,-0.475464,-0.204224,14.526366,-27.404783,148.193359"
"0.561646,-0.467163,-0.174438,9.460449,-30.517576,127.685539"
"0.601685,-0.405518,-0.140991,12.878417,-28.381346,111.633293"
"0.645630,-0.394897,-0.084106,6.591796,-26.550291,99.426262"
"0.656006,-0.485107,-0.057983,-16.845703,-18.188477,80.078125"
"0.664307,-0.458862,-0.064819,-31.860350,-7.812500,72.875977"
"0.693237,-0.355103,-0.133545,-28.564451,-1.281738,61.950680"
"0.718262,-0.262085,-0.169922,-21.850584,-1.953125,54.077145"
"0.726562,-0.210205,-0.126831,-4.943848,-9.521484,36.010742"
"0.721802,-0.222656,-0.076172,4.638672,-13.122558,15.502929"
"0.722168,-0.315063,-0.085937,-2.685547,-9.155273,-5.249023"
"0.715942,-0.444336,-0.066650,-12.878417,-7.446289,-8.911133"
"0.710693,-0.365601,-0.046753,-17.578125,-5.371093,-9.460449"
"0.730347,-0.332031,-0.080078,-19.409180,-0.427246,-18.310547"
"0.730957,-0.306030,-0.075806,-13.183593,-1.953125,-28.930662"
"0.718506,-0.259521,-0.017578,-14.648437,-2.502441,-47.058102"
"0.712769,-0.384644,-0.064941,-19.836426,0.244141,-58.227535"
"0.702026,-0.563110,-0.090332,-29.724119,1.159668,-71.716309"
"0.687866,-0.572510,-0.071289,-30.212400,2.075195,-71.716309"
"0.679687,-0.515747,-0.050049,-24.963377,5.249023,-73.669434"
"0.648193,-0.426514,-0.060181,-14.099120,8.422852,-80.139160"
"0.622559,-0.371704,-0.046875,-6.225585,4.577637,-98.999016"
"0.584961,-0.490479,-0.092407,-6.225585,5.615234,-126.770012"
"0.569214,-0.839111,-0.165527,-4.882812,3.417969,-130.981445"
"0.547974,-1.008179,-0.082642,-2.319336,-4.089355,-115.722649"
"0.536499,-1.000366,-0.009399,3.845215,-0.122070,-91.369621"
"0.505249,-0.758179,0.066528,4.577637,18.493652,-82.519524"
"0.491455,-0.573364,-0.035645,-0.122070,27.221678,-89.965813"
"0.409790,-0.497559,-0.193481,-16.052246,34.484863,-113.647453"
"0.376465,-0.575684,-0.304443,-28.137205,10.864257,-145.446777"
"0.346802,-0.988403,-0.174438,-9.460449,-3.723144,-150.268555"
"0.348267,-1.295410,-0.133667,0.366211,-2.929687,-135.314941"
"0.330078,-1.122925,0.055786,8.117676,-8.789063,-91.979973"
"0.310547,-0.937378,0.085693,-8.056641,3.784179,-72.631836"
"0.256592,-0.674438,0.015991,-32.409668,15.258788,-90.942375"
"0.203857,-0.667969,-0.066284,-40.466305,16.418457,-106.567375"
"0.165283,-0.966187,-0.139526,-45.471188,12.634276,-131.896973"
"0.165405,-1.161499,-0.182983,-31.738279,0.366211,-126.159660"
"0.148193,-1.363892,-0.022583,-17.883301,-8.361816,-111.022942"
"0.123901,-1.145630,0.163574,5.371093,-6.408691,-75.988770"
"0.104614,-0.989014,0.144897,11.962890,16.052246,-63.598629"
"0.039917,-0.738403,0.020874,0.000000,21.789549,-80.566399"
"-0.015015,-0.781128,-0.078735,-11.718749,18.798828,-96.252434"
"-0.009277,-1.174561,-0.206543,-31.249998,8.789063,-119.995110"
"-0.002197,-1.392334,-0.177368,-21.057127,-7.812500,-106.018059"
"-0.000732,-1.455688,-0.001343,12.145995,-6.652832,-60.058590"
"-0.035400,-1.075073,0.041382,22.033689,0.915527,-44.250484"
"-0.083252,-0.815186,-0.007568,17.700195,13.183593,-44.860836"
"-0.099121,-0.811401,-0.030518,4.089355,12.817382,-66.894531"
"-0.111084,-0.942261,-0.091919,-1.159668,10.620116,-75.134277"
"-0.092285,-1.179688,-0.116943,-10.986327,1.647949,-79.895020"
"-0.103394,-1.263916,0.008545,-7.202148,-3.967285,-61.462399"
"-0.106201,-1.153564,0.014648,6.103515,7.263183,-34.729004"
"-0.144531,-0.863892,-0.042236,9.399414,12.145995,-30.395506"
"-0.204346,-0.688477,-0.022461,7.568359,13.183593,-42.419430"
"-0.218384,-0.715210,-0.057251,1.281738,14.770507,-68.725586"
"-0.197266,-1.006592,-0.170776,-13.183593,6.652832,-81.298820"
"-0.166016,-1.297119,-0.168457,-19.409180,-1.281738,-75.012207"
"-0.178589,-1.341553,0.009277,-12.329101,-12.023925,-45.410152"
"-0.201538,-1.235596,0.066895,9.277344,-2.197266,-10.192870"
"-0.270630,-0.855957,0.040161,9.643555,8.911133,-7.507324"
"-0.300781,-0.735474,-0.026855,3.479004,11.718749,-20.507811"
"-0.274902,-0.970825,-0.130249,-5.004883,11.840819,-44.921871"
"-0.260254,-1.110352,-0.152222,-13.427733,2.075195,-44.128414"
"-0.231567,-1.285889,-0.068848,-5.798339,-5.676269,-18.554687"
"-0.234985,-1.192261,0.009033,1.037598,-4.211426,-2.624511"
"-0.278076,-0.907593,0.002319,7.385253,1.098633,14.465331"
"-0.289917,-0.836182,0.001221,3.723144,5.371093,5.065917"
"-0.287109,-0.866333,-0.088623,-2.563476,6.164550,-1.953125"
"-0.260742,-1.043213,-0.085937,-6.164550,-0.793457,-9.643555"
"-0.247070,-1.126343,-0.058228,0.915527,-5.859375,1.586914"
"-0.245972,-1.097534,0.002563,-3.723144,-5.249023,17.578125"
"-0.254761,-1.097290,0.013916,-7.507324,-1.831055,20.690916"
"-0.260620,-1.054443,-0.002197,-6.347656,5.126953,28.808592"
"-0.260254,-1.019775,-0.033447,-3.356933,9.216309,31.982420"
"-0.234741,-1.119629,-0.089966,-3.906250,7.995605,31.372068"
"-0.224365,-1.193604,-0.069336,-0.976562,2.197266,42.785641"
"-0.228271,-1.137695,-0.069580,7.263183,-2.075195,61.950680"
""
"0.497803,-0.769897,-0.101074,5.310058,18.493652,-111.816399"
"0.474243,-0.758057,-0.169678,2.807617,15.136718,-110.107414"
"0.438965,-0.753174,-0.127930,-0.976562,12.573241,-113.708488"
"0.395752,-0.903687,-0.288818,-15.747069,17.578125,-119.018547"
"0.373047,-0.931763,-0.080200,-5.676269,-6.896972,-110.473625"
"0.351929,-0.914062,-0.011963,7.263183,4.455566,-104.003899"
"0.326416,-0.924194,-0.124512,5.981445,12.512206,-103.942863"
"0.318848,-1.067627,-0.147705,-5.432128,12.329101,-104.003899"
"0.308594,-1.101196,-0.161743,-11.901855,9.643555,-88.806145"
"0.259033,-0.965332,-0.077026,-6.896972,7.446289,-75.683594"
"0.219116,-0.834351,-0.112671,-8.178711,12.695312,-78.063965"
"0.197754,-0.874146,-0.245728,-11.596679,15.930175,-90.942375"
"0.178101,-0.895630,-0.237183,-12.023925,2.685547,-98.388664"
"0.138794,-0.989258,-0.147827,-13.061522,-2.380371,-101.440422"
"0.118286,-1.106323,-0.030151,-6.530761,-3.662109,-100.036613"
"0.100586,-1.061890,-0.033203,-0.427246,9.033203,-88.012688"
"0.087769,-0.997070,-0.075073,-0.244141,16.601562,-80.200195"
"0.043579,-0.880005,-0.109131,-1.281738,16.967773,-81.054680"
"0.000610,-0.879272,-0.131470,-10.742187,16.662598,-90.270988"
"-0.013672,-0.925903,-0.170044,-34.484863,13.000487,-101.867668"
"-0.031006,-1.061768,-0.140991,-38.208008,2.441406,-100.952141"
"-0.048096,-1.077148,-0.089722,-27.893064,2.441406,-95.520012"
"-0.050659,-1.193726,-0.131470,-8.422852,7.812500,-86.059563"
"-0.073608,-1.163818,-0.095093,3.967285,4.333496,-64.880371"
"-0.155518,-0.891968,0.044067,0.854492,10.986327,-63.720699"
"-0.203857,-0.838013,0.016724,-10.437011,17.822266,-73.669434"
"-0.213013,-0.915894,-0.170776,-30.334471,26.000975,-92.407219"
"-0.203735,-1.020630,-0.288452,-29.968260,16.967773,-101.135246"
"-0.179687,-1.369995,-0.292358,-21.972654,5.554199,-96.923820"
"-0.209106,-1.365723,-0.045776,3.356933,-10.314940,-62.988277"
"-0.256836,-1.049438,0.046631,17.700195,-3.112793,-32.348633"
"-0.277954,-0.946411,0.064209,11.230468,8.178711,-32.287598"
"-0.305908,-0.822998,-0.016235,5.432128,15.136718,-36.926270"
"-0.302246,-0.924438,-0.189331,-6.896972,19.042969,-52.368160"
"-0.287476,-1.063354,-0.203735,-17.761230,7.324218,-58.898922"
"-0.262451,-1.293335,-0.146973,-14.587401,-1.708984,-37.170410"
"-0.266846,-1.197388,-0.064209,-6.591796,-2.807617,-21.057127"
"-0.306152,-0.963257,-0.017334,4.882812,-1.647949,-0.244141"
"-0.320679,-0.883911,-0.005493,8.300781,4.394531,-2.319336"
"-0.320801,-0.873901,-0.093140,-1.892090,8.300781,-14.709472"
"-0.296265,-1.000488,-0.160645,-6.225585,5.126953,-17.333984"
"-0.278687,-1.088989,-0.142334,-7.812500,-3.173828,-11.962890"
"-0.289429,-1.091553,-0.004395,-1.831055,-8.972168,1.159668"
"-0.296875,-1.025879,0.020386,4.699707,-1.342773,13.732909"
"-0.312134,-0.919922,-0.046265,-0.549316,2.380371,14.038085"
"-0.306152,-1.018188,-0.090576,-8.483887,2.502441,8.911133"
"-0.301636,-1.055786,-0.111084,1.892090,0.671387,15.502929"
"-0.287354,-1.119507,-0.143066,4.333496,-5.920410,24.108885"
"-0.271606,-1.228516,-0.068848,4.089355,-8.850098,29.968260"
"-0.284912,-1.165649,0.010742,13.488769,-7.385253,50.842281"
"-0.299072,-1.071411,-0.007446,13.854980,0.305176,63.659664"
"-0.294678,-0.993774,-0.066406,5.432128,1.586914,61.401363"
"-0.255249,-1.223145,-0.105591,-8.300781,-0.122070,55.541988"
"-0.229004,-1.310669,-0.109741,-3.723144,-3.112793,73.730469"
"-0.227783,-1.301880,-0.103149,12.390136,-6.103515,99.914543"
"-0.213867,-1.200928,-0.065430,26.977537,-6.835937,111.816399"
"-0.192017,-1.004639,-0.022339,45.043941,-5.187988,125.061028"
"-0.169678,-0.975952,-0.048096,31.249998,-0.427246,117.858879"
"-0.103516,-1.037964,-0.131592,11.657714,-0.976562,111.511223"
"-0.048218,-1.254517,-0.151733,9.094238,-4.516602,115.722649"
"-0.035889,-1.113403,-0.098999,14.099120,-8.117676,144.836426"
"-0.019897,-1.062988,-0.149048,22.094725,-4.089355,158.508301"
"0.009399,-0.976929,-0.130127,29.052732,-7.507324,161.376938"
"0.051636,-0.738403,-0.100220,41.809078,-8.239746,161.560043"
"0.113892,-0.803589,-0.192993,31.127928,2.624511,134.277344"
"0.179687,-1.180176,-0.163208,31.982420,-5.554199,143.737793"
"0.183472,-0.933105,-0.127563,24.353025,-5.554199,157.897949"
"0.255127,-0.887939,-0.342407,3.295898,0.915527,155.456543"
"0.275024,-0.893921,-0.345093,5.249023,-13.671874,152.465820"
"0.304565,-0.775146,-0.123657,17.517090,-22.338865,147.583008"
"0.360352,-0.884766,0.005859,28.869627,-15.319823,146.423340"
"0.425293,-0.965942,-0.267212,32.348633,7.446289,153.137207"
"0.432373,-0.927979,-0.288940,38.452148,-5.187988,168.029770"
"0.443726,-0.529785,-0.168579,36.376953,-12.878417,172.058090"
"0.519531,-0.303955,-0.186890,20.568846,-9.948730,148.437500"
"0.563110,-0.258057,-0.258911,3.234863,-6.225585,108.032219"
"0.610840,-0.328613,-0.247437,-3.051758,-14.648437,70.495605"
"0.639648,-0.531982,-0.148193,-4.455566,-15.075683,59.143063"
"0.640137,-0.567383,-0.106567,-5.371093,-9.826660,53.955074"
"0.638550,-0.485840,-0.080200,-10.192870,-3.234863,53.588863"
"0.652100,-0.285156,-0.097046,-16.479492,1.220703,46.630856"
"0.692627,-0.153442,-0.157471,-23.254393,3.112793,22.460936"
"0.694092,-0.095947,-0.164429,-26.184080,-1.892090,-8.239746"
"0.675293,-0.203003,-0.174438,-20.446775,-5.065917,-44.555660"
"0.659546,-0.521484,-0.121826,-11.413573,-5.920410,-52.429195"
"0.655029,-0.636841,-0.103516,-2.136230,-2.685547,-47.302242"
"0.654175,-0.623535,-0.095703,4.699707,1.525879,-34.667969"
"0.650513,-0.493652,-0.051025,2.807617,10.986327,-31.555174"
"0.640991,-0.370361,-0.191650,-7.019042,13.793944,-38.146973"
"0.620239,-0.413696,-0.158813,-15.258788,5.676269,-60.607906"
"0.606689,-0.461548,-0.168823,-18.798828,7.385253,-80.078125"
"0.593506,-0.688843,-0.284180,-16.723633,1.342773,-89.172356"
"0.583374,-0.834961,-0.198242,-9.643555,-4.516602,-85.083000"
"0.560669,-0.770874,-0.089478,4.638672,-5.126953,-72.692871"
"0.552979,-0.736816,-0.088989,8.605957,6.835937,-71.289062"
"0.520142,-0.702393,-0.250610,5.798339,15.502929,-73.852539"
"0.499268,-0.758545,-0.235352,2.197266,1.159668,-81.359856"
"0.476074,-0.906494,-0.144287,2.990722,-2.563476,-86.486809"
"0.472290,-0.986816,-0.195801,1.037598,2.258301,-76.232910"
"0.462646,-0.959961,-0.173828,-2.075195,-2.319336,-67.077637"
"0.439697,-0.841064,-0.134277,-10.864257,-3.845215,-56.823727"
"0.388794,-0.655762,-0.087646,-16.052246,0.183105,-59.387203"
"0.365723,-0.626953,-0.076294,-22.705076,7.812500,-80.383293"
"0.356079,-0.783325,-0.194092,-28.442381,10.864257,-91.674797"
"0.337769,-0.938477,-0.188843,-31.005857,1.586914,-98.266594"
"0.304688,-0.919434,-0.046387,-20.935057,-8.605957,-89.782707"
"0.284912,-0.876587,-0.005005,-7.507324,1.098633,-85.083000"
"0.255005,-0.828979,-0.074463,-2.624511,9.704590,-85.998528"
"0.206055,-0.762085,-0.179443,-2.563476,14.587401,-91.369621"
"0.187012,-0.789795,-0.195679,-13.000487,5.615234,-108.337395"
"0.175659,-1.093872,-0.197510,-17.761230,0.732422,-114.501945"
"0.150391,-1.201538,-0.038330,-18.981934,-7.263183,-101.806633"
"0.130737,-1.117065,0.023437,-13.244628,1.953125,-81.176750"
"0.081421,-0.855591,0.017700,-13.305663,17.333984,-82.885735"
"0.031128,-0.760376,-0.103760,-17.883301,20.629881,-92.041008"
"0.035156,-1.135254,-0.256592,-25.512693,13.305663,-112.670891"
"0.037842,-1.313843,-0.200684,-19.958496,-4.028320,-97.961418"
"0.009644,-1.285034,-0.016113,-16.174316,-3.417969,-80.505363"
"-0.032959,-1.002197,0.002808,-5.981445,11.169433,-57.434078"
"-0.089233,-0.757080,-0.020264,-7.507324,20.263670,-61.523434"
"-0.104980,-0.748535,-0.043457,-19.042969,21.972654,-85.876457"
"-0.111328,-0.942383,-0.179565,-22.399900,20.874022,-96.313469"
"-0.080566,-1.319336,-0.235474,-17.333984,7.751464,-99.548332"
"-0.075806,-1.408813,-0.182739,0.305176,-4.089355,-67.077637"
"-0.119995,-1.202271,-0.055908,5.065917,-2.075195,-35.461426"
"-0.190552,-0.883789,0.018311,1.892090,0.305176,-33.447266"
"-0.210327,-0.845581,-0.022095,-7.141113,8.239746,-48.767086"
"-0.214233,-0.869263,-0.061279,-13.061522,8.483887,-62.255856"
""
"0.680176,-0.500854,-0.114258,-4.211426,9.338379,-45.837399"
"0.650879,-0.453857,-0.158569,-6.958007,6.408691,-63.049313"
"0.640625,-0.542358,-0.197754,-7.873535,7.202148,-71.899414"
"0.616211,-0.648071,-0.202759,-6.958007,3.173828,-81.542961"
"0.602905,-0.726440,-0.099976,4.699707,-1.831055,-83.007805"
"0.591553,-0.743042,-0.048950,11.840819,9.033203,-79.345703"
"0.568359,-0.728394,-0.195679,4.150391,11.047362,-78.674316"
"0.545776,-0.713135,-0.100708,2.258301,4.150391,-80.322258"
"0.529663,-0.690186,-0.153931,-0.305176,14.282226,-84.777824"
"0.503052,-0.705322,-0.213501,-4.150391,8.911133,-91.979973"
"0.473145,-0.733643,-0.202759,-1.159668,8.239746,-93.994133"
"0.451294,-0.800293,-0.203735,-0.244141,4.638672,-96.252434"
"0.430908,-0.829468,-0.168091,-4.638672,-0.610352,-97.290031"
"0.400879,-0.902954,-0.117676,-8.361816,4.516602,-96.374504"
"0.382080,-0.912964,-0.175781,-12.207030,6.530761,-93.566887"
"0.344116,-0.789551,-0.149414,-18.737793,2.075195,-89.538567"
"0.319214,-0.739868,-0.128296,-23.010252,1.037598,-99.914543"
"0.265381,-0.790405,-0.109619,-22.949217,2.014160,-108.398430"
"0.243286,-0.984009,-0.150879,-17.150879,6.652832,-118.774406"
"0.242798,-1.094604,-0.174438,-9.887695,7.446289,-111.328117"
"0.233276,-1.172119,-0.130737,-0.854492,2.441406,-86.181633"
"0.183716,-0.972778,-0.031982,-2.075195,3.051758,-78.369141"
"0.146606,-0.920044,-0.078491,-15.808105,10.803222,-81.787102"
"0.116455,-0.896606,-0.122803,-22.766111,12.878417,-88.562004"
"0.112061,-0.960937,-0.207764,-25.817869,10.864257,-96.130363"
"0.123535,-1.243286,-0.248657,-12.023925,-2.380371,-82.702629"
"0.105957,-1.260132,-0.090088,-5.554199,-5.371093,-66.833496"
"0.065796,-1.038330,0.010986,-0.671387,-1.953125,-41.687008"
"0.051147,-0.950439,0.025757,-2.990722,9.094238,-39.123535"
"0.022461,-0.835815,-0.028442,-8.728027,14.892577,-43.395992"
"0.007690,-0.917969,-0.203247,-30.639647,18.249512,-60.058590"
"0.008301,-1.189697,-0.196289,-35.461426,4.638672,-68.542480"
"0.010254,-1.250610,-0.154663,-15.808105,-1.281738,-50.476070"
"-0.008301,-1.125244,-0.108887,-0.793457,-0.610352,-38.146973"
"-0.044189,-0.895386,-0.034058,18.981934,0.732422,-27.832029"
"-0.058228,-0.848389,-0.003906,8.056641,5.371093,-40.893551"
"-0.078613,-0.866577,-0.025757,-13.122558,11.352538,-58.166500"
"-0.066040,-1.037476,-0.200073,-16.418457,11.474608,-62.805172"
"-0.067505,-1.195068,-0.183594,-16.540527,1.586914,-58.654781"
"-0.093384,-1.141968,-0.069702,-9.826660,-5.737304,-40.100098"
"-0.108643,-1.045166,-0.027832,8.544922,-0.793457,-26.367186"
"-0.138062,-0.828247,-0.045776,10.375976,3.906250,-27.954100"
"-0.155884,-0.870605,-0.053589,0.427246,6.774902,-45.532223"
"-0.154663,-0.962524,-0.107056,-11.413573,7.629394,-56.091305"
"-0.131958,-1.183716,-0.178345,-20.874022,-0.244141,-47.424313"
"-0.144165,-1.208984,-0.149170,-22.216795,-4.943848,-36.010742"
"-0.169434,-1.102295,-0.069824,-5.432128,-9.338379,-15.380858"
"-0.186646,-1.010132,-0.003662,10.986327,-5.249023,-6.958007"
"-0.187012,-1.014526,-0.039185,4.699707,3.173828,-10.437011"
"-0.175415,-1.145752,-0.129517,1.464844,3.601074,-10.681151"
"-0.175415,-1.181396,-0.125122,-1.953125,-1.892090,0.305176"
"-0.172607,-1.201416,-0.100220,-2.990722,-5.920410,13.366698"
"-0.175049,-1.192871,-0.020874,2.990722,-3.112793,29.785154"
"-0.177856,-1.132813,-0.046143,5.737304,-0.427246,35.461426"
"-0.176636,-1.125732,-0.042480,7.141113,-0.671387,42.907711"
"-0.166870,-1.149414,-0.062256,6.530761,0.305176,48.583981"
"-0.137573,-1.209595,-0.105835,6.896972,0.244141,53.649899"
"-0.114258,-1.348755,-0.125122,11.718749,-1.831055,67.260742"
"-0.122681,-1.235229,-0.021606,21.850584,-5.554199,94.360344"
"-0.118530,-1.162476,-0.010864,27.099607,2.380371,107.299797"
"-0.093994,-1.069336,-0.118896,25.756834,7.629394,108.764641"
"-0.050659,-1.119873,-0.249756,21.789549,8.422852,105.957024"
"-0.026733,-1.154785,-0.225098,20.629881,-3.906250,109.558098"
"0.016602,-1.207153,-0.141235,30.151365,-6.347656,125.854485"
"0.030151,-1.087891,-0.137695,34.851074,-5.981445,134.765625"
"0.069458,-0.974365,-0.088745,43.029781,-4.333496,140.991211"
"0.101685,-1.023804,-0.120728,36.132812,0.732422,140.380859"
"0.147949,-1.030762,-0.229980,28.808592,0.122070,145.080566"
"0.188965,-0.999756,-0.244751,20.874022,-5.310058,151.123047"
"0.208252,-0.984131,-0.174683,27.343748,-10.742187,157.287598"
"0.244629,-0.820312,-0.108276,23.315428,-5.920410,159.667969"
"0.306519,-0.692993,-0.196289,20.324705,-2.868652,153.259277"
"0.368896,-0.774536,-0.248657,18.737793,-3.540039,137.329102"
"0.387329,-0.795532,-0.219116,14.038085,-10.925292,134.033203"
"0.420044,-0.731567,-0.156982,16.113281,-10.803222,135.375977"
"0.457642,-0.550293,-0.137817,18.188477,-7.751464,131.652832"
"0.489746,-0.491089,-0.165161,13.061522,-0.183105,111.389153"
"0.540771,-0.427734,-0.230591,4.089355,-1.892090,87.951653"
"0.575439,-0.463867,-0.240967,-1.464844,-5.615234,75.134277"
"0.598145,-0.632324,-0.174805,-5.737304,-10.986327,57.006832"
"0.608887,-0.704468,-0.176270,-3.234863,-8.483887,59.082027"
"0.617798,-0.538940,-0.151123,-7.263183,-9.521484,66.040039"
"0.633911,-0.272095,-0.137451,-13.183593,-8.972168,58.410641"
"0.650146,-0.149658,-0.154175,-23.803709,-7.751464,27.893064"
"0.651367,-0.177490,-0.172852,-33.752441,-7.690429,-12.512206"
"0.663208,-0.616699,-0.236084,-20.385740,-10.131835,-29.052732"
"0.651611,-0.811646,-0.095703,-8.544922,-12.939452,-17.456055"
"0.643555,-0.531616,-0.032471,2.014160,-5.554199,8.605957"
"0.648437,-0.395142,-0.088989,-6.469726,5.187988,2.990722"
"0.656006,-0.283936,-0.150635,-18.554687,3.295898,-23.986814"
"0.654297,-0.453003,-0.243286,-24.536131,2.929687,-39.428711"
"0.655518,-0.850342,-0.235474,-21.179197,-5.004883,-54.687496"
"0.652222,-0.909546,-0.134277,-1.281738,-9.704590,-33.386230"
"0.637451,-0.741333,-0.076050,3.417969,1.586914,-16.540527"
"0.626221,-0.531860,-0.151611,1.708984,3.601074,-18.310547"
"0.600586,-0.371582,-0.089844,-5.920410,0.000000,-35.644531"
"0.575439,-0.327515,-0.081787,-22.827147,1.098633,-67.443848"
"0.557129,-0.557861,-0.182617,-29.724119,2.197266,-86.425774"
"0.552856,-0.906250,-0.258179,-28.076170,-1.708984,-97.228996"
"0.528809,-0.809326,0.003418,-3.662109,-17.150879,-74.462891"
"0.511719,-0.703613,0.039795,4.699707,1.586914,-67.077637"
"0.477783,-0.515137,-0.068115,1.281738,9.033203,-71.472168"
"0.428711,-0.486450,-0.153442,-12.512206,10.131835,-95.275871"
"0.414917,-0.635132,-0.211304,-18.859863,6.896972,-123.291008"
"0.413208,-1.108643,-0.254761,-3.112793,-4.455566,-114.807121"
"0.400391,-1.209351,-0.076050,5.920410,-9.216309,-95.825188"
"0.365112,-0.929810,0.054199,15.930175,-2.197266,-62.499996"
"0.350708,-0.760132,-0.011475,1.098633,14.587401,-61.706539"
"0.305420,-0.600830,-0.122681,-9.338379,15.319823,-73.791504"
"0.262085,-0.700317,-0.203735,-23.193357,11.596679,-103.942863"
"0.236694,-0.984985,-0.276855,-19.104004,3.295898,-122.985832"
"0.232666,-1.154907,-0.204468,-0.976562,-10.864257,-115.112297"
"0.226196,-1.312378,0.022461,9.338379,-11.474608,-98.327629"
"0.181274,-0.926758,0.021973,16.601562,5.920410,-60.974117"
"0.158447,-0.739258,-0.054565,-3.601074,18.493652,-67.687988"
"0.109619,-0.647827,-0.153564,-35.583496,14.099120,-101.928703"
"0.084717,-0.994995,-0.247314,-43.579098,7.019042,-116.760246"
"0.080566,-1.375366,-0.106689,-32.653809,-7.934570,-114.807121"
"0.075806,-1.412598,-0.006836,-5.065917,-5.798339,-75.927734"
"0.069092,-1.171509,0.059692,7.934570,1.464844,-55.175777"
"0.015381,-0.760010,-0.059692,9.094238,16.967773,-40.466305"
"-0.020020,-0.663086,-0.073730,-13.488769,15.624999,-67.932129"
"-0.072510,-0.752808,-0.111084,-41.625973,13.488769,-102.355949"
"-0.035278,-1.251221,-0.308716,-48.461910,8.544922,-110.412590"
"-0.030762,-1.498291,-0.133179,-30.151365,-13.793944,-84.655754"
"-0.065308,-1.199341,0.059326,10.864257,-11.657714,-36.865234"
"-0.087280,-0.967651,0.042236,14.160155,4.577637,-22.338865"
"-0.129517,-0.720215,-0.045776,-0.610352,7.202148,-34.057617"
""
"0.531128,-0.937012,-0.114990,-13.183593,-9.948730,-102.661125"
"0.514404,-1.025635,-0.067383,8.178711,11.352538,-73.913574"
"0.487061,-0.782227,-0.178589,13.671874,12.756347,-64.208984"
"0.453491,-0.567993,-0.119751,18.371582,9.521484,-68.298340"
"0.433350,-0.541382,-0.136475,9.582520,13.000487,-92.834465"
"0.379639,-0.642944,-0.162842,-10.925292,9.643555,-119.140617"
"0.358521,-0.937134,-0.240356,-20.263670,6.896972,-126.647942"
"0.351074,-1.183594,-0.153931,-25.268553,-6.469726,-120.361320"
"0.335327,-1.168091,-0.008911,-11.657714,-8.422852,-91.491692"
"0.291382,-0.865723,0.019287,-1.892090,11.596679,-76.416016"
"0.231079,-0.608765,-0.092651,-2.502441,14.160155,-84.350578"
"0.187866,-0.782837,-0.146606,-16.174316,9.460449,-116.149895"
"0.182373,-0.952026,-0.198853,-25.085447,6.164550,-130.981445"
"0.185059,-1.303955,-0.220581,-15.441894,-2.075195,-112.731926"
"0.163940,-1.261597,0.011230,-5.004883,-6.164550,-92.590324"
"0.119629,-0.965576,0.052856,-1.037598,5.004883,-65.856934"
"0.106201,-0.904541,-0.030029,-22.888182,15.686034,-71.044922"
"0.075806,-0.912598,-0.162109,-27.160643,10.681151,-80.566399"
"0.050293,-1.051270,-0.211304,-21.789549,7.385253,-85.021965"
"0.044678,-1.286011,-0.118652,-11.657714,0.976562,-83.862297"
"0.048828,-1.374390,-0.054687,-5.065917,0.183105,-61.645504"
"0.033936,-1.236694,0.061890,5.065917,9.582520,-29.418943"
"-0.006592,-0.863281,-0.026733,3.479004,15.991210,-24.658201"
"-0.038696,-0.771362,-0.123169,-9.460449,18.432617,-43.151852"
"-0.046631,-0.847900,-0.178101,-20.324705,11.169433,-67.810059"
"-0.044312,-1.130615,-0.260986,-21.667479,4.577637,-73.669434"
"-0.029175,-1.394531,-0.095093,-8.666992,-9.033203,-64.147949"
"-0.034424,-1.356689,-0.006226,11.474608,-3.723144,-27.160643"
"-0.060913,-1.026001,0.022095,7.751464,9.460449,-9.399414"
"-0.091187,-0.733643,-0.079590,-3.601074,13.793944,-14.587401"
"-0.107300,-0.791016,-0.154419,-22.155760,11.840819,-44.067379"
"-0.106567,-0.929321,-0.160767,-21.301268,3.540039,-62.255856"
"-0.099731,-1.161377,-0.180298,-10.864257,-5.432128,-54.321285"
"-0.096802,-1.254395,-0.039917,-2.990722,-8.544922,-42.541500"
"-0.112183,-1.104004,0.008667,5.126953,-3.845215,-17.028809"
"-0.136597,-0.917603,-0.034302,1.159668,3.295898,-7.934570"
"-0.145142,-0.880615,-0.072388,-10.070800,5.371093,-18.432617"
"-0.148071,-0.976074,-0.155151,-11.779784,4.516602,-24.719236"
"-0.138550,-1.117310,-0.165649,-7.629394,-2.197266,-26.672361"
"-0.136719,-1.185303,-0.070923,0.976562,-8.422852,-15.075683"
"-0.144775,-1.137573,-0.018799,1.342773,-6.225585,1.342773"
"-0.168823,-0.994995,0.006958,-1.464844,-2.563476,4.943848"
"-0.165894,-1.029785,-0.127197,-10.192870,3.173828,0.732422"
"-0.143066,-1.239868,-0.109741,-8.544922,-4.089355,0.183105"
"-0.145386,-1.272583,-0.051270,4.882812,-8.422852,20.324705"
"-0.158691,-1.233398,0.022095,8.422852,-6.347656,29.968260"
"-0.162231,-1.231079,0.025024,4.333496,0.122070,42.785641"
"-0.151733,-1.198120,-0.107056,-0.610352,6.286621,54.016109"
"-0.139648,-1.201416,-0.159668,0.610352,0.854492,61.340328"
"-0.111938,-1.303101,-0.115356,2.380371,-3.967285,64.941406"
"-0.091309,-1.389160,-0.050293,12.390136,-5.920410,83.007805"
"-0.084106,-1.281006,-0.063354,24.414061,-4.333496,112.121574"
"-0.068115,-1.259888,-0.066406,25.512693,-7.019042,129.699707"
"-0.050293,-1.195313,-0.059937,11.779784,-9.155273,143.859863"
"-0.017334,-1.112549,-0.057983,8.972168,-6.896972,145.874023"
"0.045044,-1.119751,-0.146729,18.188477,-0.427246,150.512695"
"0.064453,-1.098511,-0.170532,31.433104,-4.333496,160.217285"
"0.101807,-1.064331,-0.083008,40.527340,-6.530761,166.564926"
"0.152466,-1.041504,-0.085815,40.893551,-2.746582,169.555649"
"0.200928,-1.001587,-0.157837,31.860350,-3.540039,176.025375"
"0.227417,-1.029663,-0.140259,23.071287,-15.747069,182.067856"
"0.261597,-0.932983,-0.079224,14.282226,-13.305663,190.063461"
"0.326904,-0.683228,-0.142334,12.390136,-8.483887,185.485825"
"0.400024,-0.603882,-0.145142,20.935057,-6.652832,164.916977"
"0.434448,-0.567383,-0.126221,25.146482,-6.225585,143.981934"
"0.504150,-0.639771,-0.200928,23.437498,-3.356933,123.413078"
"0.535522,-0.774658,-0.175903,22.888182,-7.080078,120.971672"
"0.550293,-0.543823,-0.116333,16.601562,-11.962890,128.723145"
"0.565918,-0.404053,-0.126221,9.460449,-7.995605,116.394035"
"0.607788,-0.314575,-0.112549,5.126953,-6.896972,102.050774"
"0.652100,-0.430908,-0.168457,-4.333496,-3.601074,75.927734"
"0.669678,-0.458496,-0.186768,-8.666992,-7.873535,66.589355"
"0.673950,-0.388062,-0.131592,-15.197753,-14.770507,60.607906"
"0.699219,-0.325073,-0.128906,-23.254393,-12.939452,51.818844"
"0.715454,-0.381592,-0.090942,-27.648924,-14.160155,35.339355"
"0.719116,-0.290161,-0.017822,-19.104004,-14.465331,28.686522"
"0.721680,-0.270264,-0.022827,-13.549804,-7.141113,13.916015"
"0.724365,-0.297607,-0.052368,-11.962890,-4.394531,6.225585"
"0.727173,-0.352905,-0.060547,-4.882812,-1.831055,-4.699707"
"0.721191,-0.305908,-0.051270,0.183105,-0.549316,-10.803222"
"0.721558,-0.293701,-0.051758,-6.530761,2.075195,-23.315428"
"0.714966,-0.323975,-0.051392,-10.803222,4.089355,-30.212400"
"0.713745,-0.312988,-0.116455,-16.784668,8.300781,-42.480465"
"0.719971,-0.468628,-0.176025,-8.972168,8.789063,-57.250973"
"0.716187,-0.535156,-0.170776,8.300781,3.356933,-58.837887"
"0.700928,-0.537109,-0.145264,14.587401,2.075195,-57.495113"
"0.671875,-0.457520,-0.109131,19.409180,3.112793,-60.302731"
"0.639526,-0.436401,-0.089111,10.375976,5.798339,-74.035645"
"0.626343,-0.435425,-0.128540,-5.798339,10.253905,-92.651360"
"0.614746,-0.652466,-0.281982,-9.460449,9.765625,-102.722160"
"0.604370,-0.889771,-0.216431,0.732422,-3.601074,-102.050774"
"0.589355,-0.859009,-0.131104,11.840819,-10.192870,-79.406738"
"0.549927,-0.691895,-0.036743,12.390136,-1.403808,-72.631836"
"0.521973,-0.543213,-0.033569,8.422852,5.249023,-76.843262"
"0.494263,-0.529541,-0.228882,-7.812500,19.897461,-96.008293"
"0.479126,-0.592896,-0.273926,-19.165039,1.831055,-117.248528"
"0.451904,-0.886475,-0.202637,-12.939452,-6.225585,-123.107903"
"0.426636,-1.051880,-0.138428,-3.967285,-7.629394,-112.426750"
"0.382568,-0.831055,0.015991,2.868652,-12.390136,-89.599602"
"0.342041,-0.740479,-0.010254,-2.563476,-0.671387,-94.299309"
"0.322266,-0.756592,-0.043701,-10.437011,8.361816,-110.168449"
"0.297241,-0.910034,-0.162109,-16.296387,11.535644,-119.995110"
"0.287476,-1.140747,-0.221558,-14.160155,6.958007,-116.943352"
"0.267578,-1.206665,-0.065186,-6.225585,-5.493164,-96.862785"
"0.255981,-1.156494,0.001343,-1.770019,-1.464844,-73.059082"
"0.217651,-0.928101,-0.002808,-7.690429,9.338379,-65.856934"
"0.160889,-0.749146,-0.017822,-13.610839,12.023925,-71.655273"
"0.137329,-0.862305,-0.189453,-30.639647,17.395020,-95.764153"
"0.135498,-1.019775,-0.275879,-36.437988,4.150391,-109.313957"
"0.134277,-1.306152,-0.164795,-30.273436,-6.347656,-104.858391"
"0.120972,-1.349976,-0.000244,-6.164550,-8.850098,-76.049805"
"0.087524,-1.002197,0.050171,15.563964,1.342773,-41.381832"
"0.064331,-0.815063,0.037476,9.887695,13.610839,-43.945309"
"0.017944,-0.726562,-0.070312,-3.906250,16.784668,-60.119625"
"0.018677,-1.031494,-0.229858,-27.832029,13.000487,-89.233391"
"0.018677,-1.156738,-0.251831,-24.902342,-3.479004,-84.655754"
"0.008301,-1.263794,-0.080933,-3.234863,-10.986327,-62.194820"
"-0.001221,-1.248169,0.042114,7.141113,-6.225585,-49.194332"
"-0.025269,-1.030884,-0.025513,10.192870,5.798339,-27.954100"
"-0.039429,-0.946045,-0.068115,-1.892090,7.812500,-30.456541"
"-0.059814,-0.967407,-0.143188,-8.666992,6.042480,-38.085937"
"-0.052124,-1.178223,-0.159546,-11.169433,-0.427246,-46.691891"
"-0.055542,-1.280640,-0.028687,1.220703,-6.286621,-33.142090"
"-0.054565,-1.274292,0.014160,8.178711,0.854492,-10.620116"
"-0.069214,-1.100220,-0.032837,4.455566,5.493164,-1.220703"
"-0.091553,-0.916992,-0.100098,-5.981445,8.300781,1.831055"
"-0.092163,-0.918335,-0.124268,-12.268065,5.004883,-11.657714"
"-0.089600,-1.020386,-0.126709,-13.916015,-0.854492,-18.066406"
""
"0.596069,-0.866577,-0.250977,2.380371,-11.108397,-109.374992"
"0.578247,-0.899536,-0.032471,9.216309,-12.573241,-88.562004"
"0.535889,-0.774048,-0.008911,5.737304,-13.854980,-81.970207"
"0.496948,-0.593506,0.153442,3.845215,-11.596679,-81.665031"
"0.473755,-0.556030,0.082886,-7.385253,14.709472,-102.478020"
"0.464355,-0.765259,-0.212158,-13.000487,13.244628,-119.689934"
"0.457397,-1.080933,-0.269775,-8.239746,1.037598,-119.567863"
"0.416382,-1.117676,0.043701,10.925292,-20.812986,-96.496574"
"0.393799,-0.992432,0.155518,11.901855,-8.605957,-72.875977"
"0.352295,-0.730957,0.120728,-4.638672,12.695312,-77.819824"
"0.334961,-0.749268,-0.052002,-12.695312,17.639160,-88.500969"
"0.338135,-1.032227,-0.211060,-19.104004,15.014647,-103.637688"
"0.332886,-1.151367,-0.194580,-2.868652,-1.770019,-91.186516"
"0.308838,-1.187256,-0.017212,8.178711,-7.446289,-77.941895"
"0.271606,-1.012695,0.094238,9.643555,-3.295898,-57.556149"
"0.259521,-0.940430,0.062988,-12.695312,8.178711,-57.556149"
"0.243896,-0.927856,-0.061646,-26.123045,8.056641,-68.237305"
"0.228638,-1.038330,-0.071411,-23.010252,6.286621,-70.495605"
"0.218384,-1.174805,-0.041016,-7.507324,6.164550,-66.589355"
"0.214233,-1.206665,-0.026367,6.896972,7.263183,-49.560543"
"0.188354,-1.092285,0.007324,8.422852,8.300781,-39.733887"
"0.179321,-0.998169,0.013184,1.464844,12.634276,-32.714844"
"0.173950,-0.961548,0.000732,-7.812500,17.272949,-35.156250"
"0.157837,-0.908203,-0.061401,-14.404296,17.456055,-44.189449"
"0.152954,-1.000854,-0.128784,-14.892577,14.282226,-49.072262"
"0.144409,-1.105469,-0.076172,-7.263183,5.249023,-49.377438"
"0.136108,-1.125000,-0.043091,1.831055,2.685547,-40.771481"
"0.124390,-1.119263,-0.024902,5.126953,5.004883,-34.362793"
"0.110107,-1.005005,-0.035645,5.737304,9.460449,-23.803709"
"0.086182,-0.883423,-0.001099,-5.859375,9.033203,-25.756834"
"0.080322,-0.878784,-0.028198,-13.549804,13.122558,-38.513184"
"0.069458,-0.980103,-0.113037,-12.512206,13.305663,-43.640133"
"0.088013,-1.196411,-0.171387,-7.568359,9.582520,-45.654293"
"0.094849,-1.255981,-0.144409,4.211426,1.342773,-27.282713"
"0.075439,-1.127075,-0.012329,7.141113,0.549316,-6.469726"
"0.054199,-0.922363,0.009766,3.662109,4.272461,-4.150391"
"0.049316,-0.871338,-0.078125,-1.892090,10.742187,-13.305663"
"0.047607,-0.905884,-0.097290,-3.051758,6.652832,-26.489256"
"0.043945,-1.048096,-0.111084,-5.004883,3.540039,-30.029295"
"0.051025,-1.213745,-0.093872,-5.554199,-1.708984,-26.672361"
"0.034668,-1.210571,0.023804,4.211426,-5.859375,-7.263183"
"0.020386,-1.122925,0.050781,5.310058,0.854492,8.361816"
"0.021118,-1.050049,-0.053833,0.122070,5.004883,7.690429"
"0.042725,-1.231567,-0.105469,-4.394531,2.563476,4.089355"
"0.046021,-1.328247,-0.060303,11.413573,-2.929687,19.409180"
"0.040161,-1.315063,-0.028320,21.057127,-0.549316,42.480465"
"0.038574,-1.284058,0.004883,20.385740,-0.671387,49.804684"
"0.041992,-1.181030,0.007202,13.488769,3.051758,63.659664"
"0.056519,-1.159912,-0.071655,2.624511,7.873535,67.626953"
"0.097778,-1.267334,-0.179687,0.915527,4.760742,68.847656"
"0.117798,-1.374878,-0.096069,17.822266,-4.516602,85.144035"
"0.119995,-1.369751,-0.050049,41.503902,-3.723144,114.685051"
"0.128052,-1.313721,-0.001343,45.104977,1.342773,140.502930"
"0.150391,-1.154907,-0.063354,40.222164,3.173828,151.245117"
"0.195312,-1.019409,-0.199341,38.635254,2.685547,161.621078"
"0.216919,-0.969604,-0.200562,49.438473,-8.117676,160.888657"
"0.266113,-0.961792,-0.160034,52.795406,-10.253905,157.470703"
"0.322388,-1.216187,-0.273804,47.912594,-7.995605,153.686523"
"0.337036,-1.212769,-0.207642,48.767086,-21.301268,180.725082"
"0.337524,-1.026855,-0.174683,47.119137,-26.855467,211.242661"
"0.377686,-0.550171,-0.156128,45.104977,-26.428221,212.463364"
"0.473633,-0.384277,-0.174316,32.165527,-23.681639,181.945786"
"0.515747,-0.457520,-0.200073,20.019531,-23.254393,143.249512"
"0.571411,-0.778320,-0.174683,20.874022,-29.907225,136.901855"
"0.566284,-0.663696,-0.060425,22.277830,-29.479979,147.583008"
"0.602173,-0.295410,-0.078491,25.329588,-15.686034,152.099609"
"0.632690,-0.194214,-0.120361,16.052246,-6.896972,124.633781"
"0.684204,-0.145630,-0.188354,7.812500,-7.751464,106.445305"
"0.711914,-0.317993,-0.179932,-12.451171,-14.892577,72.692871"
"0.720825,-0.373901,-0.165894,-29.235838,-18.249512,60.119625"
"0.741699,-0.348022,-0.135864,-33.813477,-19.592285,55.419918"
"0.780396,-0.253418,-0.141235,-31.677244,-18.554687,51.513668"
"0.789429,-0.157349,-0.114990,-19.531250,-18.371582,38.635254"
"0.788574,-0.134888,-0.058594,-11.352538,-18.493652,17.211914"
"0.788086,-0.225220,-0.045410,-13.488769,-10.864257,-2.990722"
"0.777466,-0.301758,-0.040527,-13.000487,-8.361816,-7.995605"
"0.767456,-0.323486,-0.025024,-18.371582,-4.516602,-14.648437"
"0.762451,-0.307495,-0.046753,-26.611326,-0.061035,-18.676758"
"0.772949,-0.242554,-0.033447,-20.812986,4.272461,-21.728514"
"0.781250,-0.227051,-0.067749,-17.395020,8.422852,-31.127928"
"0.780762,-0.283936,-0.093384,-17.883301,0.061035,-42.175289"
"0.773071,-0.383789,-0.035645,-15.991210,-1.770019,-43.823238"
"0.768799,-0.353638,-0.063843,-9.399414,2.502441,-44.250484"
"0.762695,-0.320068,-0.083984,-0.793457,2.807617,-51.086422"
"0.746094,-0.335205,-0.105225,2.807617,2.075195,-57.434078"
"0.737793,-0.484863,-0.143188,6.286621,1.281738,-70.434570"
"0.737915,-0.582031,-0.127441,14.465331,-0.976562,-73.181152"
"0.722656,-0.588013,-0.071411,12.939452,3.234863,-65.734863"
"0.705933,-0.460449,-0.105469,10.070800,6.591796,-67.199707"
"0.683838,-0.441040,-0.169434,5.432128,8.544922,-81.054680"
"0.666382,-0.469971,-0.167969,12.634276,4.028320,-96.008293"
"0.620605,-0.533325,-0.118408,14.099120,3.601074,-107.910149"
"0.594482,-0.669067,-0.130005,11.779784,5.676269,-113.037102"
"0.576172,-0.755493,-0.173584,6.225585,6.713867,-113.708488"
"0.559570,-0.744995,-0.118774,-0.183105,3.356933,-112.121574"
"0.526367,-0.830688,-0.123169,-22.033689,16.540527,-111.999504"
"0.529175,-0.917358,-0.225708,-20.874022,6.774902,-108.520500"
"0.478027,-0.738525,-0.054565,-0.305176,-2.624511,-96.069328"
"0.449219,-0.704224,-0.041870,-4.821777,5.798339,-106.811516"
"0.401855,-0.798218,0.003540,-20.935057,10.864257,-120.056145"
"0.385376,-0.992676,-0.119385,-28.686522,16.174316,-121.826164"
"0.390503,-1.154175,-0.208252,-22.338865,14.404296,-109.863274"
"0.385620,-1.139771,-0.153320,1.220703,3.295898,-83.129875"
"0.326904,-0.872070,0.032349,7.873535,6.042480,-72.631836"
"0.270630,-0.708252,0.065796,1.342773,13.183593,-80.810539"
"0.226318,-0.754639,-0.069580,-21.667479,20.874022,-103.454582"
"0.207764,-0.833984,-0.129028,-33.874512,14.526366,-122.619621"
"0.227295,-1.280029,-0.216553,-27.465818,13.916015,-126.647942"
"0.233154,-1.414307,-0.189209,-1.892090,11.474608,-98.388664"
"0.211060,-1.279297,-0.103760,22.216795,6.103515,-60.852047"
"0.143555,-0.900269,0.034058,16.784668,15.258788,-58.959957"
"0.091064,-0.732910,0.034302,7.202148,21.545408,-69.519043"
"0.046875,-0.717896,-0.135376,-18.615723,30.151365,-94.665520"
"0.037476,-0.843994,-0.240967,-35.949707,21.728514,-120.483391"
"0.058838,-1.280640,-0.257813,-34.240723,13.061522,-123.107903"
"0.050781,-1.355347,-0.080322,-13.671874,0.000000,-93.994133"
"0.033569,-1.218140,0.026123,12.329101,5.310058,-58.288570"
"-0.015625,-0.855713,0.014160,5.615234,22.521971,-58.227535"
"-0.054687,-0.796875,-0.132935,-2.258301,23.193357,-69.030762"
"-0.080688,-0.941650,-0.219604,-18.432617,13.305663,-86.242668"
"-0.065063,-1.269043,-0.191650,-26.733397,1.342773,-91.491692"
"-0.068604,-1.385010,-0.089600,-12.878417,-7.812500,-63.293453"
"-0.089111,-1.249146,0.006714,15.502929,-3.662109,-26.245115"
"-0.135376,-0.944702,-0.010986,15.624999,7.812500,-20.812986"
"-0.150146,-0.921753,-0.131348,-5.737304,17.211914,-32.409668"
"-0.140015,-1.088501,-0.137939,-17.761230,10.253905,-43.151852"
"-0.135620,-1.125610,-0.160645,-13.610839,4.028320,-34.667969"
"-0.131836,-1.193604,-0.141846,-11.413573,-0.488281,-29.113768"
""
"0.765259,-0.417358,-0.185059,-7.812500,-7.751464,-65.246582"
"0.751465,-0.506592,-0.139160,3.601074,-10.803222,-58.837887"
"0.722778,-0.462769,-0.072021,5.432128,-10.620116,-57.678219"
"0.701782,-0.391357,-0.075806,-2.624511,-4.455566,-63.781734"
"0.698486,-0.383179,-0.133057,-16.540527,2.197266,-80.505363"
"0.687622,-0.478149,-0.222656,-14.343261,-3.051758,-96.130363"
"0.662231,-0.572266,-0.160767,-5.981445,-6.347656,-98.266594"
"0.619873,-0.564453,-0.115845,9.338379,-5.126953,-97.045891"
"0.600342,-0.601074,-0.080322,13.610839,-2.929687,-99.975578"
"0.569336,-0.635254,0.004883,-1.464844,8.361816,-102.416985"
"0.564453,-0.700439,-0.169067,-10.986327,15.869140,-105.407707"
"0.543213,-0.699219,-0.257568,-13.366698,11.596679,-104.736320"
"0.529297,-0.652466,-0.180420,-3.601074,3.051758,-106.384270"
"0.476562,-0.724121,-0.195068,-5.371093,8.544922,-110.656731"
"0.432983,-0.721680,0.002930,-1.525879,-7.568359,-114.929192"
"0.382935,-0.759644,0.044312,-4.882812,6.713867,-122.802727"
"0.381104,-0.896484,-0.140991,-17.028809,25.390623,-129.577637"
"0.376709,-1.111816,-0.223389,-15.075683,16.662598,-122.558586"
"0.323608,-0.916260,-0.077637,-7.202148,3.173828,-98.510735"
"0.303955,-0.856689,-0.062012,-2.136230,9.155273,-100.463860"
"0.268799,-0.839722,-0.145142,2.929687,14.831542,-111.633293"
"0.232666,-0.978271,-0.185547,3.479004,13.183593,-116.088860"
"0.206299,-1.095459,-0.170410,-6.042480,8.422852,-113.342278"
"0.197998,-1.132935,-0.161499,-20.690916,4.333496,-105.957024"
"0.169556,-1.132935,-0.089600,-32.592773,5.432128,-93.933098"
"0.132202,-1.018311,-0.090210,-33.264160,6.958007,-90.332024"
"0.117798,-1.041138,-0.131836,-16.784668,12.329101,-92.712395"
"0.111694,-1.074341,-0.184692,-4.821777,12.695312,-90.087883"
"0.081787,-1.064697,-0.213623,-10.253905,-1.525879,-84.960930"
"0.065674,-1.169800,-0.140991,-16.967773,-6.835937,-83.618156"
"0.054199,-1.309204,-0.003906,-25.207518,-9.399414,-71.350098"
"0.046753,-1.308350,0.078369,-15.014647,3.540039,-43.701168"
"0.026978,-1.036987,-0.018677,-22.521971,21.911619,-31.372068"
"0.008179,-0.872437,-0.178589,-29.663084,21.667479,-35.644531"
"-0.038574,-0.862427,-0.127686,-30.883787,12.145995,-50.476070"
"-0.050415,-0.916626,-0.041870,-25.878904,5.493164,-61.950680"
"-0.057983,-0.960449,-0.046875,-23.071287,8.056641,-64.331055"
"-0.054565,-1.058838,-0.096924,-20.141600,6.164550,-67.871094"
"-0.058960,-1.135376,-0.038940,-4.455566,0.671387,-59.692379"
"-0.070190,-1.068237,-0.047363,2.624511,2.990722,-45.043941"
"-0.103027,-0.929321,-0.078735,-4.516602,1.403808,-45.043941"
"-0.115479,-1.029419,-0.031006,-17.700195,-3.845215,-54.931637"
"-0.121826,-1.084106,-0.015991,-16.967773,-1.281738,-52.185055"
"-0.141968,-1.087280,-0.052246,-9.399414,0.122070,-42.236324"
"-0.142090,-1.120972,-0.113525,-7.690429,-1.525879,-39.245605"
"-0.163574,-1.148071,-0.023437,-5.554199,-8.728027,-29.907225"
"-0.174927,-1.103271,0.014893,-4.028320,-5.187988,-18.859863"
"-0.187378,-1.009521,-0.029785,-9.582520,-1.892090,-18.188477"
"-0.191650,-1.014282,-0.028076,-10.314940,-2.563476,-20.263670"
"-0.180298,-1.117676,-0.056763,-8.728027,-1.892090,-22.033689"
"-0.169678,-1.196167,-0.073120,0.000000,-4.028320,-12.695312"
"-0.171753,-1.247925,0.018677,5.981445,-5.920410,9.216309"
"-0.194336,-1.124268,0.042236,3.906250,-2.624511,18.188477"
"-0.183594,-1.177246,-0.038330,-2.197266,1.586914,22.888182"
"-0.176270,-1.257813,-0.048706,0.793457,-0.915527,32.836914"
"-0.165161,-1.309448,-0.045288,5.493164,-2.685547,43.823238"
"-0.156128,-1.333374,-0.067017,11.413573,-5.432128,65.490723"
"-0.148071,-1.419922,-0.059570,14.404296,-10.192870,86.303703"
"-0.154907,-1.453979,0.070923,27.893064,-6.713867,123.962395"
"-0.152832,-1.225098,0.026245,32.165527,-0.427246,137.573242"
"-0.117432,-1.147705,-0.039185,29.052732,4.882812,143.310547"
"-0.091553,-1.144165,-0.071655,26.489256,8.300781,144.653320"
"-0.043579,-1.136597,-0.104980,35.949707,7.995605,150.024414"
"0.009033,-1.084473,-0.061890,47.241207,8.422852,155.151367"
"0.073608,-0.961914,-0.174927,63.720699,15.441894,163.696274"
"0.102905,-0.973755,-0.236938,55.664059,9.765625,160.522461"
"0.145020,-0.994263,-0.163574,53.833004,1.953125,162.536606"
"0.187622,-0.845459,-0.096558,50.781246,-3.906250,170.715317"
"0.216553,-0.810913,-0.101318,31.372068,-2.441406,161.743149"
"0.281738,-0.906494,-0.109009,21.789549,0.000000,156.616211"
"0.348511,-0.901367,-0.303955,12.817382,8.178711,159.057617"
"0.374268,-0.836304,-0.357178,18.005371,-5.737304,161.743149"
"0.406372,-0.728882,-0.246826,15.014647,-28.137205,153.808594"
"0.447388,-0.661499,-0.051758,13.122558,-29.357908,147.521973"
"0.498779,-0.671143,-0.108398,8.544922,-12.512206,132.690430"
"0.525757,-0.721802,-0.176147,4.943848,-2.990722,123.168938"
"0.561646,-0.627808,-0.171875,11.779784,-6.286621,126.220695"
"0.599487,-0.458984,-0.189575,10.803222,-6.835937,119.689934"
"0.630493,-0.491943,-0.133423,7.446289,-11.779784,99.548332"
"0.640625,-0.499146,-0.107788,-1.586914,-9.765625,87.097160"
"0.650879,-0.455566,-0.112061,-15.441894,-3.356933,78.063965"
"0.679565,-0.456177,-0.202759,-19.836426,-0.122070,73.059082"
"0.700195,-0.359009,-0.192749,-17.517090,-2.441406,68.786621"
"0.711792,-0.257690,-0.157593,-17.822266,-7.080078,59.020992"
"0.735107,-0.107300,-0.166016,-20.690916,-7.080078,47.729488"
"0.740723,-0.108887,-0.141724,-26.367186,-10.803222,16.113281"
"0.737183,-0.181519,-0.098511,-31.372068,-12.695312,-14.587401"
"0.743164,-0.488770,-0.116455,-21.301268,-8.056641,-21.606443"
"0.731201,-0.532349,-0.080444,-13.671874,-8.361816,-12.695312"
"0.721436,-0.318237,-0.044434,-5.920410,-4.455566,-1.220703"
"0.718994,-0.205811,-0.065430,-11.413573,1.098633,-12.817382"
"0.714111,-0.064209,-0.039063,-18.310547,4.333496,-46.630856"
"0.718750,-0.258301,-0.128662,-19.897461,8.117676,-65.307617"
"0.705322,-0.601562,-0.165649,-13.122558,4.638672,-83.374016"
"0.701294,-0.718140,-0.154907,-0.122070,0.305176,-72.631836"
"0.689941,-0.693237,-0.106445,15.747069,0.854492,-51.147457"
"0.663940,-0.404785,-0.102539,19.042969,3.051758,-48.400875"
"0.634033,-0.216553,-0.162842,14.892577,7.141113,-69.519043"
"0.614258,-0.225342,-0.193359,0.854492,2.197266,-108.520500"
"0.560303,-0.520508,-0.172729,-7.873535,-3.479004,-126.281731"
"0.560059,-1.045776,-0.148437,-13.244628,-6.835937,-136.962891"
"0.563354,-1.081421,-0.145508,-1.708984,-5.615234,-97.228996"
"0.541992,-0.752197,0.009888,-3.540039,4.760742,-79.650879"
"0.503540,-0.547119,-0.167114,-16.662598,13.427733,-85.510246"
"0.473145,-0.677246,-0.260986,-23.010252,5.554199,-110.412590"
"0.453979,-0.822510,-0.224854,-8.239746,-2.929687,-120.483391"
"0.424438,-0.986206,-0.143799,-3.906250,-5.859375,-115.478508"
"0.386475,-0.911011,-0.004395,-0.488281,-11.535644,-99.243156"
"0.326294,-0.656982,0.056519,-5.615234,-3.906250,-93.872063"
"0.287109,-0.567871,0.035156,-21.728514,12.207030,-118.286125"
"0.248657,-0.735718,-0.217529,-28.259275,18.737793,-137.023926"
"0.225098,-1.195435,-0.284790,-25.756834,2.014160,-154.296875"
"0.208374,-1.448608,0.029053,-7.568359,-23.620604,-129.638672"
"0.199951,-1.336426,0.152344,16.784668,-5.920410,-82.580559"
"0.171265,-0.900146,0.048706,-0.610352,22.155760,-76.354980"
"0.102173,-0.662476,-0.065308,-15.869140,22.583006,-89.782707"
"0.044800,-0.814209,-0.174438,-56.823727,16.357422,-130.432129"
"0.035034,-1.043579,-0.231201,-70.739746,0.488281,-151.428223"
"0.032593,-1.440796,-0.106079,-58.959957,-9.887695,-142.700195"
"0.040039,-1.470093,0.099243,-11.291503,-13.671874,-98.022453"
"0.000244,-0.976440,0.063965,25.329588,6.042480,-52.795406"
"-0.036621,-0.760498,0.006592,0.671387,13.183593,-63.598629"
"-0.096069,-0.700684,-0.080688,-16.723633,11.291503,-82.702629"
"-0.105713,-1.037109,-0.187622,-38.146973,3.479004,-113.708488"
"-0.053467,-1.573120,-0.130859,-25.634764,-8.666992,-109.985344"
"-0.047852,-1.578613,-0.024780,10.437011,-14.587401,-50.476070"
"-0.107422,-1.105713,0.096313,19.409180,-10.681151,-25.451658"
"-0.178589,-0.779907,0.094360,8.117676,1.953125,-19.592285"
""
"0.639526,-0.542358,-0.197266,-21.179197,-6.103515,-131.896973"
"0.626831,-0.952393,-0.237427,4.333496,-20.507811,-112.915031"
"0.596191,-0.928223,-0.007080,14.709472,-24.963377,-93.811028"
"0.562500,-0.671875,0.162354,8.239746,-12.695312,-71.960449"
"0.559692,-0.598267,0.085449,-19.470215,13.793944,-80.444328"
"0.559326,-0.466797,-0.117188,-33.447266,20.507811,-101.989738"
"0.511963,-0.618042,-0.352051,-41.748043,15.014647,-116.699211"
"0.465454,-0.885986,-0.065796,-23.193357,-26.672361,-130.676270"
"0.429565,-0.904907,0.110718,4.516602,-21.728514,-119.140617"
"0.388794,-0.881592,0.107910,5.493164,-1.892090,-109.619133"
"0.357544,-0.839966,0.039917,1.953125,2.136230,-107.910149"
"0.328613,-0.853271,-0.017456,-10.192870,10.070800,-110.351555"
"0.320801,-0.912476,-0.072144,-23.986814,12.268065,-116.821281"
"0.305054,-1.044800,-0.116943,-19.653320,1.525879,-109.985344"
"0.255737,-1.026611,0.026245,-13.671874,-4.333496,-104.309074"
"0.202881,-0.953735,0.180542,-5.981445,-1.098633,-99.914543"
"0.184204,-0.928467,0.175537,-13.061522,15.686034,-105.163567"
"0.165283,-0.942993,0.015503,-23.254393,31.066893,-116.027824"
"0.195679,-1.260864,-0.329224,-27.099607,32.714844,-118.835442"
"0.156982,-1.319336,-0.079712,1.953125,-0.976562,-94.604485"
"0.120117,-1.165771,0.114990,23.803709,-9.826660,-64.453125"
"0.062134,-0.933472,0.176392,-0.976562,9.338379,-68.786621"
"0.035645,-0.867554,0.075195,-12.451171,16.662598,-76.782227"
"0.049194,-1.074097,-0.235107,-27.587889,26.428221,-94.787590"
"0.062500,-1.294556,-0.346436,-25.207518,7.812500,-93.566887"
"0.041138,-1.469849,-0.066406,-14.831542,-9.460449,-75.561523"
"0.002808,-1.157471,0.203735,6.530761,-11.657714,-32.775879"
"-0.030640,-0.845459,0.103638,5.554199,10.681151,-22.155760"
"-0.039673,-0.807495,0.035645,-10.620116,16.662598,-43.395992"
"-0.048950,-0.938232,-0.055908,-17.761230,15.624999,-54.992672"
"-0.035400,-1.090820,-0.196167,-20.080564,11.352538,-64.208984"
"-0.036255,-1.209961,-0.143677,-9.033203,-3.234863,-57.189938"
"-0.070068,-1.127930,0.110474,2.929687,-16.113281,-36.743164"
"-0.077759,-1.032593,0.169312,11.474608,-1.159668,-21.911619"
"-0.090210,-0.881470,0.016602,-3.662109,12.634276,-29.357908"
"-0.089600,-0.996826,-0.104980,-8.483887,9.948730,-37.048340"
"-0.092163,-1.075562,-0.072876,-6.591796,-0.610352,-36.926270"
"-0.097290,-1.072754,-0.061646,0.488281,-4.455566,-29.602049"
"-0.103149,-1.149414,0.007935,10.253905,-4.028320,-18.554687"
"-0.122437,-1.075317,0.031982,10.559081,-0.671387,-11.047362"
"-0.126343,-1.045288,-0.010376,4.455566,3.540039,-6.408691"
"-0.128906,-1.033813,-0.024536,-7.080078,2.014160,-5.493164"
"-0.126465,-1.053589,-0.043579,-11.901855,0.244141,-5.920410"
"-0.111938,-1.141479,0.010986,-5.554199,-1.708984,-2.624511"
"-0.125366,-1.030640,-0.017700,2.380371,-0.366211,10.803222"
"-0.124878,-1.049438,-0.025635,1.525879,-3.234863,10.375976"
"-0.116699,-1.162964,0.008911,4.333496,-3.356933,16.723633"
"-0.102417,-1.291504,0.027710,9.704590,-1.464844,24.047850"
"-0.101563,-1.193359,-0.030273,17.883301,3.234863,47.607418"
"-0.110596,-1.101563,-0.036743,12.084960,-1.342773,57.373043"
"-0.107910,-1.095703,0.049927,5.187988,-2.136230,52.856441"
"-0.073608,-1.260254,0.000488,6.835937,1.220703,56.335445"
"-0.045288,-1.358643,-0.116821,14.038085,1.464844,74.218750"
"-0.038208,-1.411377,-0.060791,31.433104,-9.765625,101.806633"
"-0.043335,-1.335693,0.009888,41.503902,-16.662598,133.666992"
"-0.029053,-1.191284,0.057251,41.931149,-13.854980,141.601562"
"0.018311,-1.106079,-0.108154,40.588375,-3.051758,148.559570"
"0.081177,-1.048584,-0.198242,53.222652,-1.892090,149.230957"
"0.106567,-1.014893,-0.234009,59.692379,-10.498046,148.681641"
"0.147827,-0.965942,-0.152954,57.861324,-18.554687,145.935059"
"0.185181,-0.994507,-0.021973,54.016109,-21.179197,140.441895"
"0.212402,-1.005859,-0.055054,40.710445,-7.995605,142.028809"
"0.270996,-1.077026,-0.179932,26.916502,-7.202148,151.428223"
"0.308594,-1.045532,-0.250488,21.423338,-10.253905,159.057617"
"0.334595,-0.778076,-0.204712,25.451658,-20.690916,173.095688"
"0.358887,-0.641602,-0.162354,32.226562,-24.169920,161.560043"
"0.424072,-0.754272,-0.078735,27.587889,-15.991210,139.648437"
"0.467529,-0.980957,-0.117065,17.761230,-11.047362,140.014648"
"0.495117,-0.869507,-0.174927,-0.061035,-8.361816,158.325195"
"0.508789,-0.697876,-0.192139,0.122070,-12.329101,170.104965"
"0.565308,-0.471924,-0.184082,10.314940,-16.784668,153.259277"
"0.617920,-0.385864,-0.107178,18.676758,-17.150879,143.676758"
"0.645386,-0.287964,-0.051392,26.855467,-13.488769,122.253410"
"0.663574,-0.327637,-0.076904,14.831542,-2.258301,93.322746"
"0.689941,-0.424316,-0.145752,-3.845215,-1.159668,80.505363"
"0.711426,-0.289185,-0.160278,-12.634276,-3.234863,76.477051"
"0.737305,-0.159912,-0.159302,-18.432617,-7.019042,59.692379"
"0.747314,-0.142456,-0.154175,-13.427733,-9.460449,36.621094"
"0.747681,-0.148071,-0.137451,-15.747069,-13.244628,16.540527"
"0.749756,-0.285278,-0.116455,-17.883301,-13.977050,7.568359"
"0.755127,-0.311157,-0.071045,-18.188477,-12.573241,2.990722"
"0.754883,-0.234741,-0.062378,-22.033689,-7.995605,-0.976562"
"0.759033,-0.166748,-0.059204,-23.620604,-5.981445,-9.277344"
"0.742676,-0.162598,0.002930,-21.118162,-4.333496,-25.695799"
"0.733276,-0.219360,-0.053711,-25.329588,3.540039,-42.724606"
"0.744385,-0.321533,-0.084961,-21.850584,6.713867,-56.945797"
"0.758057,-0.500610,-0.092896,-13.549804,7.690429,-56.091305"
"0.752075,-0.423340,-0.134888,0.976562,9.338379,-46.569820"
"0.744385,-0.351807,-0.140991,10.742187,3.906250,-50.476070"
"0.707886,-0.256226,-0.071777,5.493164,2.990722,-73.242187"
"0.685547,-0.325684,-0.129761,-2.685547,6.347656,-88.256828"
"0.658569,-0.542114,-0.178101,-15.747069,4.089355,-112.365715"
"0.650269,-0.667236,-0.185547,-20.019531,-1.098633,-119.262688"
"0.640259,-0.765503,-0.161987,-7.385253,-6.286621,-105.773918"
"0.598999,-0.629028,-0.075195,-1.892090,-8.300781,-99.792473"
"0.531982,-0.472046,0.024048,2.075195,-6.164550,-102.905266"
"0.472534,-0.443237,0.000244,-7.934570,4.211426,-122.924797"
"0.447510,-0.486816,-0.048462,-18.432617,8.666992,-148.071289"
"0.412476,-0.795288,-0.124756,-27.099607,18.554687,-162.963852"
"0.450439,-1.375244,-0.350952,-17.028809,14.038085,-157.287598"
"0.437866,-1.304321,-0.059692,31.677244,-7.751464,-102.355949"
"0.398560,-0.901245,0.037720,39.794922,5.310058,-63.232418"
"0.384399,-0.787231,-0.024170,11.352538,19.958496,-68.481445"
"0.335449,-0.623657,-0.083984,-2.868652,20.324705,-77.026367"
"0.278198,-0.654297,-0.140503,-33.325195,17.272949,-105.957024"
"0.271851,-1.059937,-0.219360,-38.146973,11.840819,-131.103516"
"0.263794,-1.193359,-0.151123,-11.779784,-0.793457,-114.929192"
"0.217529,-1.090210,0.062134,2.685547,4.577637,-90.270988"
"0.173950,-0.829834,0.094971,2.990722,13.916015,-87.646477"
"0.114136,-0.691040,-0.071655,-7.019042,29.907225,-102.844231"
"0.110352,-1.012207,-0.357300,-21.118162,28.442381,-130.798340"
"0.123169,-1.246460,-0.448608,-23.498533,1.708984,-128.540039"
"0.098877,-1.409912,-0.141968,3.234863,-17.822266,-87.829582"
"0.031860,-1.086304,0.103516,7.995605,-9.521484,-70.373535"
"-0.004883,-0.849854,0.051514,-2.563476,11.596679,-68.054199"
"-0.022217,-0.806396,0.002075,-24.597166,20.141600,-86.669914"
"-0.035156,-0.981812,-0.228882,-38.085937,15.747069,-104.614250"
"-0.041870,-1.320923,-0.251709,-36.499023,5.981445,-102.294914"
"-0.061401,-1.333252,-0.019897,-19.775391,-7.202148,-74.279785"
"-0.068848,-1.232544,0.041016,1.159668,4.394531,-46.081539"
"-0.099121,-0.972046,0.025391,9.216309,11.962890,-39.245605"
"-0.155151,-0.722900,-0.025513,7.812500,18.859863,-43.701168"
"-0.162231,-0.903931,-0.199585,-19.592285,18.737793,-74.462891"
"-0.140625,-1.149780,-0.291260,-43.395992,3.234863,-89.782707"
"-0.118286,-1.551392,-0.167480,-25.695799,-15.319823,-54.382320"
"-0.149780,-1.359497,0.098755,-5.554199,-13.732909,-24.963377"
"-0.182007,-0.911621,0.021484,13.122558,5.493164,7.751464"
"-0.207764,-0.796509,-0.021973,7.019042,10.559081,-8.056641"
""
"0.759155,-0.491211,-0.118652,5.493164,8.911133,-41.931149"
"0.756348,-0.569580,-0.119873,5.187988,3.356933,-33.142090"
"0.750488,-0.501465,-0.068726,4.577637,2.441406,-29.968260"
"0.747681,-0.388062,-0.093140,2.685547,7.446289,-32.714844"
"0.745728,-0.340210,-0.097656,4.455566,9.887695,-48.095699"
"0.726807,-0.276611,-0.113403,9.094238,9.521484,-72.448730"
"0.683594,-0.434692,-0.125854,9.338379,7.995605,-86.364738"
"0.657471,-0.752563,-0.116821,10.070800,7.690429,-100.646965"
"0.658081,-0.868774,-0.121338,5.249023,9.704590,-87.646477"
"0.664795,-0.887817,-0.155273,1.586914,10.131835,-74.584961"
"0.645020,-0.608154,-0.119873,-1.586914,8.605957,-54.321285"
"0.633789,-0.484985,-0.116089,-1.220703,12.817382,-63.476559"
"0.601196,-0.364868,-0.190552,2.563476,13.183593,-90.820305"
"0.554077,-0.528442,-0.199219,6.286621,8.850098,-106.201164"
"0.523926,-0.913696,-0.138794,2.502441,7.629394,-123.718254"
